Wavenumber;Absorbance
681.24;1.63
681.48;1.63
681.72;1.63
681.97;1.63
682.21;1.62
682.45;1.62
682.69;1.62
682.93;1.62
683.17;1.62
683.41;1.63
683.65;1.63
683.89;1.63
684.13;1.63
684.38;1.63
684.62;1.63
684.86;1.63
685.10;1.63
685.34;1.63
685.58;1.63
685.82;1.63
686.06;1.63
686.30;1.63
686.55;1.63
686.79;1.63
687.03;1.63
687.27;1.62
687.51;1.62
687.75;1.62
687.99;1.62
688.23;1.62
688.47;1.62
688.72;1.62
688.96;1.62
689.20;1.62
689.44;1.62
689.68;1.61
689.92;1.61
690.16;1.61
690.40;1.61
690.64;1.61
690.88;1.61
691.13;1.61
691.37;1.60
691.61;1.60
691.85;1.60
692.09;1.60
692.33;1.59
692.57;1.59
692.81;1.59
693.05;1.59
693.30;1.59
693.54;1.59
693.78;1.58
694.02;1.58
694.26;1.58
694.50;1.58
694.74;1.58
694.98;1.58
695.22;1.58
695.46;1.58
695.71;1.57
695.95;1.57
696.19;1.57
696.43;1.57
696.67;1.56
696.91;1.56
697.15;1.56
697.39;1.56
697.63;1.55
697.88;1.55
698.12;1.55
698.36;1.55
698.60;1.55
698.84;1.55
699.08;1.55
699.32;1.55
699.56;1.55
699.80;1.55
700.04;1.55
700.29;1.55
700.53;1.55
700.77;1.55
701.01;1.55
701.25;1.55
701.49;1.55
701.73;1.55
701.97;1.55
702.21;1.55
702.46;1.54
702.70;1.54
702.94;1.54
703.18;1.54
703.42;1.54
703.66;1.54
703.90;1.53
704.14;1.53
704.38;1.53
704.63;1.53
704.87;1.53
705.11;1.53
705.35;1.53
705.59;1.53
705.83;1.53
706.07;1.53
706.31;1.53
706.55;1.53
706.79;1.53
707.04;1.53
707.28;1.53
707.52;1.53
707.76;1.53
708.00;1.52
708.24;1.52
708.48;1.52
708.72;1.52
708.96;1.52
709.21;1.52
709.45;1.52
709.69;1.52
709.93;1.52
710.17;1.52
710.41;1.52
710.65;1.52
710.89;1.52
711.13;1.52
711.37;1.52
711.62;1.52
711.86;1.52
712.10;1.52
712.34;1.52
712.58;1.52
712.82;1.52
713.06;1.53
713.30;1.53
713.54;1.53
713.79;1.53
714.03;1.53
714.27;1.53
714.51;1.54
714.75;1.54
714.99;1.54
715.23;1.54
715.47;1.54
715.71;1.55
715.96;1.55
716.20;1.55
716.44;1.56
716.68;1.56
716.92;1.56
717.16;1.57
717.40;1.57
717.64;1.57
717.88;1.58
718.12;1.59
718.37;1.59
718.61;1.60
718.85;1.61
719.09;1.62
719.33;1.63
719.57;1.64
719.81;1.65
720.05;1.67
720.29;1.69
720.54;1.70
720.78;1.72
721.02;1.74
721.26;1.77
721.50;1.79
721.74;1.81
721.98;1.84
722.22;1.87
722.46;1.89
722.70;1.92
722.95;1.94
723.19;1.96
723.43;1.97
723.67;1.97
723.91;1.97
724.15;1.95
724.39;1.93
724.63;1.90
724.87;1.88
725.12;1.85
725.36;1.82
725.60;1.79
725.84;1.76
726.08;1.73
726.32;1.70
726.56;1.68
726.80;1.65
727.04;1.63
727.29;1.62
727.53;1.60
727.77;1.59
728.01;1.57
728.25;1.56
728.49;1.55
728.73;1.55
728.97;1.54
729.21;1.53
729.45;1.53
729.70;1.52
729.94;1.52
730.18;1.52
730.42;1.51
730.66;1.51
730.90;1.51
731.14;1.50
731.38;1.50
731.62;1.50
731.87;1.49
732.11;1.49
732.35;1.49
732.59;1.49
732.83;1.49
733.07;1.49
733.31;1.48
733.55;1.48
733.79;1.48
734.03;1.48
734.28;1.48
734.52;1.48
734.76;1.48
735.00;1.48
735.24;1.48
735.48;1.48
735.72;1.48
735.96;1.48
736.20;1.47
736.45;1.47
736.69;1.47
736.93;1.47
737.17;1.47
737.41;1.47
737.65;1.47
737.89;1.47
738.13;1.47
738.37;1.47
738.61;1.47
738.86;1.47
739.10;1.47
739.34;1.47
739.58;1.47
739.82;1.47
740.06;1.47
740.30;1.47
740.54;1.47
740.78;1.47
741.03;1.47
741.27;1.47
741.51;1.47
741.75;1.47
741.99;1.47
742.23;1.47
742.47;1.47
742.71;1.47
742.95;1.47
743.20;1.47
743.44;1.47
743.68;1.47
743.92;1.47
744.16;1.47
744.40;1.47
744.64;1.47
744.88;1.47
745.12;1.47
745.36;1.47
745.61;1.47
745.85;1.47
746.09;1.47
746.33;1.47
746.57;1.47
746.81;1.46
747.05;1.46
747.29;1.46
747.53;1.47
747.78;1.47
748.02;1.47
748.26;1.47
748.50;1.47
748.74;1.46
748.98;1.46
749.22;1.46
749.46;1.46
749.70;1.46
749.94;1.46
750.19;1.46
750.43;1.46
750.67;1.46
750.91;1.46
751.15;1.46
751.39;1.46
751.63;1.46
751.87;1.46
752.11;1.46
752.36;1.46
752.60;1.46
752.84;1.46
753.08;1.46
753.32;1.46
753.56;1.46
753.80;1.46
754.04;1.46
754.28;1.46
754.53;1.46
754.77;1.46
755.01;1.45
755.25;1.45
755.49;1.45
755.73;1.45
755.97;1.45
756.21;1.45
756.45;1.45
756.69;1.45
756.94;1.45
757.18;1.45
757.42;1.45
757.66;1.45
757.90;1.45
758.14;1.45
758.38;1.45
758.62;1.45
758.86;1.45
759.11;1.45
759.35;1.45
759.59;1.45
759.83;1.45
760.07;1.45
760.31;1.44
760.55;1.44
760.79;1.44
761.03;1.44
761.27;1.44
761.52;1.44
761.76;1.44
762.00;1.44
762.24;1.44
762.48;1.44
762.72;1.44
762.96;1.44
763.20;1.44
763.44;1.44
763.69;1.44
763.93;1.44
764.17;1.44
764.41;1.44
764.65;1.44
764.89;1.44
765.13;1.44
765.37;1.44
765.61;1.44
765.85;1.44
766.10;1.44
766.34;1.44
766.58;1.44
766.82;1.44
767.06;1.44
767.30;1.43
767.54;1.43
767.78;1.43
768.02;1.43
768.27;1.43
768.51;1.43
768.75;1.43
768.99;1.43
769.23;1.43
769.47;1.43
769.71;1.43
769.95;1.43
770.19;1.43
770.44;1.43
770.68;1.43
770.92;1.43
771.16;1.43
771.40;1.43
771.64;1.43
771.88;1.43
772.12;1.43
772.36;1.42
772.60;1.42
772.85;1.42
773.09;1.42
773.33;1.42
773.57;1.42
773.81;1.42
774.05;1.42
774.29;1.42
774.53;1.42
774.77;1.42
775.02;1.42
775.26;1.42
775.50;1.42
775.74;1.42
775.98;1.42
776.22;1.42
776.46;1.42
776.70;1.42
776.94;1.42
777.18;1.42
777.43;1.42
777.67;1.42
777.91;1.42
778.15;1.42
778.39;1.42
778.63;1.42
778.87;1.42
779.11;1.42
779.35;1.42
779.60;1.42
779.84;1.42
780.08;1.42
780.32;1.42
780.56;1.42
780.80;1.42
781.04;1.42
781.28;1.42
781.52;1.42
781.77;1.42
782.01;1.42
782.25;1.42
782.49;1.42
782.73;1.42
782.97;1.42
783.21;1.42
783.45;1.42
783.69;1.42
783.93;1.42
784.18;1.42
784.42;1.42
784.66;1.42
784.90;1.42
785.14;1.42
785.38;1.42
785.62;1.42
785.86;1.42
786.10;1.42
786.35;1.42
786.59;1.42
786.83;1.42
787.07;1.42
787.31;1.42
787.55;1.43
787.79;1.43
788.03;1.43
788.27;1.43
788.51;1.43
788.76;1.43
789.00;1.43
789.24;1.43
789.48;1.43
789.72;1.43
789.96;1.43
790.20;1.44
790.44;1.44
790.68;1.44
790.93;1.44
791.17;1.44
791.41;1.44
791.65;1.44
791.89;1.44
792.13;1.44
792.37;1.44
792.61;1.45
792.85;1.45
793.10;1.45
793.34;1.46
793.58;1.47
793.82;1.47
794.06;1.48
794.30;1.49
794.54;1.50
794.78;1.51
795.02;1.53
795.26;1.54
795.51;1.56
795.75;1.58
795.99;1.60
796.23;1.61
796.47;1.63
796.71;1.64
796.95;1.65
797.19;1.65
797.43;1.64
797.68;1.63
797.92;1.61
798.16;1.60
798.40;1.58
798.64;1.56
798.88;1.54
799.12;1.53
799.36;1.52
799.60;1.51
799.84;1.50
800.09;1.49
800.33;1.48
800.57;1.48
800.81;1.47
801.05;1.47
801.29;1.46
801.53;1.46
801.77;1.46
802.01;1.46
802.26;1.46
802.50;1.45
802.74;1.45
802.98;1.45
803.22;1.45
803.46;1.45
803.70;1.45
803.94;1.45
804.18;1.45
804.42;1.45
804.67;1.45
804.91;1.45
805.15;1.44
805.39;1.44
805.63;1.44
805.87;1.44
806.11;1.44
806.35;1.44
806.59;1.44
806.84;1.44
807.08;1.44
807.32;1.44
807.56;1.44
807.80;1.44
808.04;1.44
808.28;1.44
808.52;1.44
808.76;1.44
809.01;1.44
809.25;1.44
809.49;1.44
809.73;1.44
809.97;1.44
810.21;1.44
810.45;1.44
810.69;1.44
810.93;1.44
811.17;1.44
811.42;1.44
811.66;1.44
811.90;1.44
812.14;1.44
812.38;1.44
812.62;1.44
812.86;1.44
813.10;1.44
813.34;1.44
813.59;1.44
813.83;1.44
814.07;1.44
814.31;1.44
814.55;1.44
814.79;1.44
815.03;1.44
815.27;1.44
815.51;1.44
815.75;1.44
816.00;1.44
816.24;1.44
816.48;1.44
816.72;1.44
816.96;1.44
817.20;1.45
817.44;1.45
817.68;1.45
817.92;1.45
818.17;1.45
818.41;1.45
818.65;1.45
818.89;1.45
819.13;1.45
819.37;1.45
819.61;1.45
819.85;1.45
820.09;1.45
820.34;1.45
820.58;1.45
820.82;1.45
821.06;1.45
821.30;1.45
821.54;1.45
821.78;1.45
822.02;1.45
822.26;1.45
822.50;1.45
822.75;1.45
822.99;1.46
823.23;1.46
823.47;1.46
823.71;1.46
823.95;1.46
824.19;1.46
824.43;1.46
824.67;1.46
824.92;1.46
825.16;1.46
825.40;1.46
825.64;1.46
825.88;1.46
826.12;1.46
826.36;1.46
826.60;1.46
826.84;1.46
827.08;1.46
827.33;1.46
827.57;1.46
827.81;1.46
828.05;1.46
828.29;1.46
828.53;1.46
828.77;1.46
829.01;1.47
829.25;1.47
829.50;1.47
829.74;1.47
829.98;1.47
830.22;1.47
830.46;1.47
830.70;1.47
830.94;1.47
831.18;1.48
831.42;1.48
831.67;1.48
831.91;1.48
832.15;1.48
832.39;1.48
832.63;1.48
832.87;1.48
833.11;1.48
833.35;1.48
833.59;1.48
833.83;1.48
834.08;1.48
834.32;1.48
834.56;1.48
834.80;1.49
835.04;1.49
835.28;1.49
835.52;1.49
835.76;1.49
836.00;1.49
836.25;1.50
836.49;1.50
836.73;1.50
836.97;1.50
837.21;1.50
837.45;1.50
837.69;1.50
837.93;1.50
838.17;1.51
838.41;1.51
838.66;1.51
838.90;1.51
839.14;1.52
839.38;1.52
839.62;1.53
839.86;1.53
840.10;1.54
840.34;1.54
840.58;1.55
840.83;1.56
841.07;1.56
841.31;1.57
841.55;1.58
841.79;1.58
842.03;1.59
842.27;1.60
842.51;1.60
842.75;1.61
842.99;1.61
843.24;1.61
843.48;1.61
843.72;1.61
843.96;1.61
844.20;1.62
844.44;1.62
844.68;1.62
844.92;1.62
845.16;1.62
845.41;1.62
845.65;1.62
845.89;1.62
846.13;1.63
846.37;1.63
846.61;1.63
846.85;1.63
847.09;1.63
847.33;1.63
847.58;1.63
847.82;1.63
848.06;1.63
848.30;1.63
848.54;1.63
848.78;1.63
849.02;1.63
849.26;1.63
849.50;1.63
849.74;1.62
849.99;1.62
850.23;1.62
850.47;1.61
850.71;1.61
850.95;1.61
851.19;1.60
851.43;1.60
851.67;1.60
851.91;1.59
852.16;1.59
852.40;1.58
852.64;1.58
852.88;1.58
853.12;1.57
853.36;1.57
853.60;1.57
853.84;1.56
854.08;1.56
854.32;1.56
854.57;1.56
854.81;1.56
855.05;1.56
855.29;1.55
855.53;1.55
855.77;1.55
856.01;1.55
856.25;1.55
856.49;1.55
856.74;1.55
856.98;1.55
857.22;1.55
857.46;1.55
857.70;1.55
857.94;1.56
858.18;1.56
858.42;1.56
858.66;1.56
858.91;1.56
859.15;1.56
859.39;1.56
859.63;1.56
859.87;1.56
860.11;1.57
860.35;1.57
860.59;1.57
860.83;1.57
861.07;1.58
861.32;1.58
861.56;1.58
861.80;1.58
862.04;1.58
862.28;1.59
862.52;1.59
862.76;1.59
863.00;1.59
863.24;1.59
863.49;1.59
863.73;1.60
863.97;1.60
864.21;1.60
864.45;1.60
864.69;1.61
864.93;1.61
865.17;1.61
865.41;1.61
865.65;1.61
865.90;1.62
866.14;1.62
866.38;1.62
866.62;1.62
866.86;1.62
867.10;1.62
867.34;1.63
867.58;1.63
867.82;1.63
868.07;1.63
868.31;1.63
868.55;1.63
868.79;1.63
869.03;1.64
869.27;1.64
869.51;1.64
869.75;1.64
869.99;1.64
870.23;1.65
870.48;1.65
870.72;1.65
870.96;1.65
871.20;1.65
871.44;1.65
871.68;1.65
871.92;1.65
872.16;1.65
872.40;1.65
872.65;1.65
872.89;1.65
873.13;1.65
873.37;1.65
873.61;1.65
873.85;1.65
874.09;1.65
874.33;1.65
874.57;1.65
874.82;1.65
875.06;1.64
875.30;1.64
875.54;1.64
875.78;1.64
876.02;1.64
876.26;1.64
876.50;1.64
876.74;1.63
876.98;1.63
877.23;1.63
877.47;1.63
877.71;1.63
877.95;1.63
878.19;1.62
878.43;1.62
878.67;1.62
878.91;1.62
879.15;1.62
879.40;1.62
879.64;1.62
879.88;1.62
880.12;1.61
880.36;1.61
880.60;1.61
880.84;1.61
881.08;1.61
881.32;1.61
881.56;1.60
881.81;1.60
882.05;1.60
882.29;1.60
882.53;1.60
882.77;1.60
883.01;1.59
883.25;1.59
883.49;1.59
883.73;1.59
883.98;1.59
884.22;1.59
884.46;1.59
884.70;1.59
884.94;1.59
885.18;1.58
885.42;1.58
885.66;1.58
885.90;1.58
886.15;1.58
886.39;1.58
886.63;1.58
886.87;1.58
887.11;1.58
887.35;1.58
887.59;1.58
887.83;1.58
888.07;1.58
888.31;1.57
888.56;1.57
888.80;1.57
889.04;1.57
889.28;1.57
889.52;1.57
889.76;1.57
890.00;1.57
890.24;1.57
890.48;1.57
890.73;1.57
890.97;1.57
891.21;1.57
891.45;1.57
891.69;1.57
891.93;1.57
892.17;1.57
892.41;1.57
892.65;1.57
892.89;1.56
893.14;1.56
893.38;1.56
893.62;1.56
893.86;1.56
894.10;1.56
894.34;1.56
894.58;1.56
894.82;1.56
895.06;1.56
895.31;1.56
895.55;1.56
895.79;1.56
896.03;1.56
896.27;1.56
896.51;1.56
896.75;1.56
896.99;1.56
897.23;1.56
897.48;1.57
897.72;1.57
897.96;1.57
898.20;1.57
898.44;1.57
898.68;1.57
898.92;1.57
899.16;1.58
899.40;1.58
899.64;1.58
899.89;1.58
900.13;1.58
900.37;1.59
900.61;1.59
900.85;1.59
901.09;1.59
901.33;1.60
901.57;1.60
901.81;1.60
902.06;1.60
902.30;1.61
902.54;1.61
902.78;1.61
903.02;1.62
903.26;1.62
903.50;1.62
903.74;1.62
903.98;1.63
904.22;1.63
904.47;1.63
904.71;1.64
904.95;1.64
905.19;1.64
905.43;1.65
905.67;1.65
905.91;1.66
906.15;1.66
906.39;1.67
906.64;1.68
906.88;1.68
907.12;1.69
907.36;1.70
907.60;1.71
907.84;1.72
908.08;1.73
908.32;1.74
908.56;1.76
908.80;1.77
909.05;1.78
909.29;1.80
909.53;1.81
909.77;1.82
910.01;1.84
910.25;1.85
910.49;1.86
910.73;1.88
910.97;1.89
911.22;1.90
911.46;1.91
911.70;1.92
911.94;1.93
912.18;1.94
912.42;1.95
912.66;1.96
912.90;1.96
913.14;1.96
913.39;1.96
913.63;1.95
913.87;1.94
914.11;1.93
914.35;1.91
914.59;1.90
914.83;1.88
915.07;1.86
915.31;1.84
915.55;1.82
915.80;1.80
916.04;1.78
916.28;1.77
916.52;1.75
916.76;1.74
917.00;1.72
917.24;1.71
917.48;1.70
917.72;1.69
917.97;1.68
918.21;1.67
918.45;1.66
918.69;1.65
918.93;1.65
919.17;1.64
919.41;1.64
919.65;1.63
919.89;1.63
920.13;1.62
920.38;1.62
920.62;1.61
920.86;1.61
921.10;1.61
921.34;1.61
921.58;1.60
921.82;1.60
922.06;1.60
922.30;1.60
922.55;1.60
922.79;1.60
923.03;1.60
923.27;1.60
923.51;1.60
923.75;1.60
923.99;1.60
924.23;1.60
924.47;1.60
924.72;1.60
924.96;1.60
925.20;1.60
925.44;1.60
925.68;1.60
925.92;1.60
926.16;1.61
926.40;1.61
926.64;1.61
926.88;1.61
927.13;1.61
927.37;1.61
927.61;1.61
927.85;1.62
928.09;1.62
928.33;1.62
928.57;1.62
928.81;1.62
929.05;1.63
929.30;1.63
929.54;1.63
929.78;1.63
930.02;1.64
930.26;1.64
930.50;1.65
930.74;1.65
930.98;1.66
931.22;1.66
931.46;1.67
931.71;1.68
931.95;1.68
932.19;1.69
932.43;1.70
932.67;1.71
932.91;1.71
933.15;1.72
933.39;1.73
933.63;1.74
933.88;1.75
934.12;1.76
934.36;1.77
934.60;1.79
934.84;1.80
935.08;1.81
935.32;1.83
935.56;1.85
935.80;1.86
936.04;1.88
936.29;1.90
936.53;1.92
936.77;1.95
937.01;1.97
937.25;1.99
937.49;2.01
937.73;2.04
937.97;2.06
938.21;2.08
938.46;2.10
938.70;2.12
938.94;2.13
939.18;2.14
939.42;2.14
939.66;2.14
939.90;2.14
940.14;2.13
940.38;2.12
940.63;2.11
940.87;2.10
941.11;2.09
941.35;2.08
941.59;2.07
941.83;2.05
942.07;2.04
942.31;2.03
942.55;2.01
942.79;2.00
943.04;1.99
943.28;1.97
943.52;1.96
943.76;1.94
944.00;1.93
944.24;1.91
944.48;1.90
944.72;1.88
944.96;1.87
945.21;1.85
945.45;1.84
945.69;1.82
945.93;1.81
946.17;1.79
946.41;1.78
946.65;1.76
946.89;1.75
947.13;1.74
947.37;1.73
947.62;1.72
947.86;1.71
948.10;1.70
948.34;1.69
948.58;1.69
948.82;1.68
949.06;1.68
949.30;1.67
949.54;1.67
949.79;1.67
950.03;1.67
950.27;1.66
950.51;1.66
950.75;1.66
950.99;1.65
951.23;1.65
951.47;1.64
951.71;1.64
951.96;1.63
952.20;1.62
952.44;1.61
952.68;1.61
952.92;1.60
953.16;1.59
953.40;1.59
953.64;1.58
953.88;1.58
954.12;1.57
954.37;1.57
954.61;1.57
954.85;1.56
955.09;1.56
955.33;1.56
955.57;1.55
955.81;1.55
956.05;1.55
956.29;1.55
956.54;1.54
956.78;1.54
957.02;1.54
957.26;1.54
957.50;1.53
957.74;1.53
957.98;1.53
958.22;1.53
958.46;1.53
958.70;1.53
958.95;1.52
959.19;1.52
959.43;1.52
959.67;1.52
959.91;1.52
960.15;1.52
960.39;1.52
960.63;1.52
960.87;1.51
961.12;1.51
961.36;1.51
961.60;1.51
961.84;1.51
962.08;1.51
962.32;1.51
962.56;1.51
962.80;1.51
963.04;1.51
963.29;1.51
963.53;1.51
963.77;1.51
964.01;1.51
964.25;1.51
964.49;1.51
964.73;1.51
964.97;1.51
965.21;1.51
965.45;1.51
965.70;1.51
965.94;1.51
966.18;1.51
966.42;1.51
966.66;1.51
966.90;1.50
967.14;1.50
967.38;1.50
967.62;1.50
967.87;1.50
968.11;1.50
968.35;1.50
968.59;1.51
968.83;1.51
969.07;1.51
969.31;1.51
969.55;1.51
969.79;1.51
970.03;1.51
970.28;1.51
970.52;1.51
970.76;1.50
971.00;1.50
971.24;1.51
971.48;1.51
971.72;1.51
971.96;1.51
972.20;1.51
972.45;1.51
972.69;1.51
972.93;1.51
973.17;1.51
973.41;1.51
973.65;1.51
973.89;1.51
974.13;1.51
974.37;1.51
974.61;1.51
974.86;1.51
975.10;1.51
975.34;1.51
975.58;1.51
975.82;1.51
976.06;1.51
976.30;1.51
976.54;1.51
976.78;1.51
977.03;1.51
977.27;1.51
977.51;1.51
977.75;1.51
977.99;1.51
978.23;1.51
978.47;1.51
978.71;1.51
978.95;1.52
979.20;1.52
979.44;1.52
979.68;1.52
979.92;1.52
980.16;1.52
980.40;1.52
980.64;1.52
980.88;1.52
981.12;1.52
981.36;1.52
981.61;1.52
981.85;1.52
982.09;1.52
982.33;1.52
982.57;1.52
982.81;1.52
983.05;1.52
983.29;1.52
983.53;1.52
983.78;1.52
984.02;1.52
984.26;1.52
984.50;1.52
984.74;1.52
984.98;1.52
985.22;1.52
985.46;1.53
985.70;1.53
985.94;1.53
986.19;1.53
986.43;1.53
986.67;1.53
986.91;1.53
987.15;1.53
987.39;1.53
987.63;1.53
987.87;1.53
988.11;1.53
988.36;1.53
988.60;1.53
988.84;1.53
989.08;1.53
989.32;1.53
989.56;1.53
989.80;1.53
990.04;1.53
990.28;1.53
990.53;1.53
990.77;1.53
991.01;1.53
991.25;1.53
991.49;1.53
991.73;1.53
991.97;1.53
992.21;1.53
992.45;1.53
992.69;1.53
992.94;1.53
993.18;1.53
993.42;1.53
993.66;1.53
993.90;1.53
994.14;1.53
994.38;1.53
994.62;1.54
994.86;1.54
995.11;1.54
995.35;1.54
995.59;1.54
995.83;1.54
996.07;1.54
996.31;1.54
996.55;1.54
996.79;1.54
997.03;1.54
997.27;1.54
997.52;1.54
997.76;1.54
998.00;1.54
998.24;1.54
998.48;1.54
998.72;1.54
998.96;1.54
999.20;1.54
999.44;1.54
999.69;1.54
999.93;1.54
1000.17;1.54
1000.41;1.55
1000.65;1.55
1000.89;1.55
1001.13;1.55
1001.37;1.55
1001.61;1.55
1001.86;1.55
1002.10;1.55
1002.34;1.55
1002.58;1.55
1002.82;1.55
1003.06;1.55
1003.30;1.55
1003.54;1.55
1003.78;1.55
1004.02;1.55
1004.27;1.55
1004.51;1.56
1004.75;1.56
1004.99;1.56
1005.23;1.56
1005.47;1.56
1005.71;1.56
1005.95;1.56
1006.19;1.56
1006.44;1.56
1006.68;1.56
1006.92;1.56
1007.16;1.56
1007.40;1.57
1007.64;1.57
1007.88;1.57
1008.12;1.57
1008.36;1.57
1008.61;1.57
1008.85;1.57
1009.09;1.57
1009.33;1.57
1009.57;1.58
1009.81;1.58
1010.05;1.58
1010.29;1.58
1010.53;1.58
1010.77;1.59
1011.02;1.59
1011.26;1.59
1011.50;1.59
1011.74;1.59
1011.98;1.60
1012.22;1.60
1012.46;1.60
1012.70;1.60
1012.94;1.60
1013.19;1.60
1013.43;1.61
1013.67;1.61
1013.91;1.61
1014.15;1.62
1014.39;1.62
1014.63;1.62
1014.87;1.63
1015.11;1.63
1015.35;1.64
1015.60;1.64
1015.84;1.64
1016.08;1.65
1016.32;1.65
1016.56;1.65
1016.80;1.66
1017.04;1.66
1017.28;1.67
1017.52;1.67
1017.77;1.68
1018.01;1.68
1018.25;1.69
1018.49;1.69
1018.73;1.70
1018.97;1.71
1019.21;1.71
1019.45;1.72
1019.69;1.73
1019.94;1.73
1020.18;1.74
1020.42;1.74
1020.66;1.75
1020.90;1.76
1021.14;1.77
1021.38;1.77
1021.62;1.78
1021.86;1.79
1022.10;1.79
1022.35;1.80
1022.59;1.81
1022.83;1.81
1023.07;1.82
1023.31;1.83
1023.55;1.83
1023.79;1.84
1024.03;1.84
1024.27;1.85
1024.52;1.85
1024.76;1.85
1025.00;1.85
1025.24;1.85
1025.48;1.85
1025.72;1.85
1025.96;1.84
1026.20;1.84
1026.44;1.83
1026.68;1.83
1026.93;1.82
1027.17;1.81
1027.41;1.80
1027.65;1.80
1027.89;1.79
1028.13;1.78
1028.37;1.77
1028.61;1.76
1028.85;1.76
1029.10;1.75
1029.34;1.74
1029.58;1.73
1029.82;1.73
1030.06;1.72
1030.30;1.72
1030.54;1.71
1030.78;1.71
1031.02;1.71
1031.27;1.70
1031.51;1.70
1031.75;1.69
1031.99;1.69
1032.23;1.69
1032.47;1.68
1032.71;1.68
1032.95;1.68
1033.19;1.68
1033.43;1.67
1033.68;1.67
1033.92;1.67
1034.16;1.67
1034.40;1.67
1034.64;1.66
1034.88;1.66
1035.12;1.66
1035.36;1.66
1035.60;1.66
1035.85;1.65
1036.09;1.65
1036.33;1.65
1036.57;1.65
1036.81;1.65
1037.05;1.65
1037.29;1.64
1037.53;1.64
1037.77;1.64
1038.01;1.64
1038.26;1.64
1038.50;1.64
1038.74;1.64
1038.98;1.63
1039.22;1.63
1039.46;1.63
1039.70;1.63
1039.94;1.63
1040.18;1.62
1040.43;1.62
1040.67;1.62
1040.91;1.62
1041.15;1.62
1041.39;1.62
1041.63;1.62
1041.87;1.61
1042.11;1.61
1042.35;1.61
1042.59;1.61
1042.84;1.61
1043.08;1.61
1043.32;1.61
1043.56;1.60
1043.80;1.60
1044.04;1.60
1044.28;1.60
1044.52;1.60
1044.76;1.60
1045.01;1.60
1045.25;1.60
1045.49;1.60
1045.73;1.60
1045.97;1.60
1046.21;1.60
1046.45;1.59
1046.69;1.59
1046.93;1.59
1047.18;1.59
1047.42;1.59
1047.66;1.59
1047.90;1.59
1048.14;1.59
1048.38;1.59
1048.62;1.59
1048.86;1.59
1049.10;1.59
1049.34;1.59
1049.59;1.59
1049.83;1.59
1050.07;1.59
1050.31;1.59
1050.55;1.59
1050.79;1.59
1051.03;1.59
1051.27;1.59
1051.51;1.59
1051.76;1.59
1052.00;1.59
1052.24;1.59
1052.48;1.59
1052.72;1.59
1052.96;1.59
1053.20;1.59
1053.44;1.59
1053.68;1.59
1053.92;1.59
1054.17;1.59
1054.41;1.59
1054.65;1.59
1054.89;1.59
1055.13;1.59
1055.37;1.59
1055.61;1.59
1055.85;1.59
1056.09;1.59
1056.34;1.59
1056.58;1.59
1056.82;1.59
1057.06;1.59
1057.30;1.59
1057.54;1.59
1057.78;1.59
1058.02;1.59
1058.26;1.59
1058.51;1.59
1058.75;1.59
1058.99;1.59
1059.23;1.59
1059.47;1.59
1059.71;1.59
1059.95;1.59
1060.19;1.59
1060.43;1.59
1060.67;1.59
1060.92;1.59
1061.16;1.59
1061.40;1.59
1061.64;1.59
1061.88;1.59
1062.12;1.59
1062.36;1.59
1062.60;1.59
1062.84;1.59
1063.09;1.59
1063.33;1.59
1063.57;1.59
1063.81;1.59
1064.05;1.59
1064.29;1.59
1064.53;1.59
1064.77;1.60
1065.01;1.60
1065.25;1.60
1065.50;1.60
1065.74;1.60
1065.98;1.60
1066.22;1.60
1066.46;1.60
1066.70;1.60
1066.94;1.60
1067.18;1.60
1067.42;1.60
1067.67;1.60
1067.91;1.60
1068.15;1.60
1068.39;1.60
1068.63;1.60
1068.87;1.60
1069.11;1.60
1069.35;1.60
1069.59;1.60
1069.83;1.60
1070.08;1.60
1070.32;1.60
1070.56;1.60
1070.80;1.60
1071.04;1.60
1071.28;1.60
1071.52;1.60
1071.76;1.60
1072.00;1.60
1072.25;1.60
1072.49;1.60
1072.73;1.60
1072.97;1.60
1073.21;1.60
1073.45;1.60
1073.69;1.60
1073.93;1.60
1074.17;1.61
1074.42;1.61
1074.66;1.61
1074.90;1.61
1075.14;1.61
1075.38;1.61
1075.62;1.61
1075.86;1.61
1076.10;1.61
1076.34;1.61
1076.58;1.61
1076.83;1.61
1077.07;1.61
1077.31;1.61
1077.55;1.61
1077.79;1.61
1078.03;1.61
1078.27;1.61
1078.51;1.61
1078.75;1.61
1079.00;1.61
1079.24;1.61
1079.48;1.61
1079.72;1.61
1079.96;1.61
1080.20;1.61
1080.44;1.61
1080.68;1.61
1080.92;1.61
1081.16;1.61
1081.41;1.61
1081.65;1.61
1081.89;1.62
1082.13;1.62
1082.37;1.62
1082.61;1.62
1082.85;1.62
1083.09;1.62
1083.33;1.62
1083.58;1.62
1083.82;1.62
1084.06;1.62
1084.30;1.62
1084.54;1.62
1084.78;1.62
1085.02;1.62
1085.26;1.62
1085.50;1.62
1085.75;1.62
1085.99;1.62
1086.23;1.62
1086.47;1.62
1086.71;1.62
1086.95;1.62
1087.19;1.62
1087.43;1.62
1087.67;1.62
1087.91;1.62
1088.16;1.62
1088.40;1.62
1088.64;1.63
1088.88;1.63
1089.12;1.63
1089.36;1.63
1089.60;1.63
1089.84;1.63
1090.08;1.63
1090.33;1.63
1090.57;1.63
1090.81;1.63
1091.05;1.63
1091.29;1.63
1091.53;1.63
1091.77;1.63
1092.01;1.63
1092.25;1.63
1092.49;1.63
1092.74;1.63
1092.98;1.63
1093.22;1.63
1093.46;1.63
1093.70;1.63
1093.94;1.63
1094.18;1.63
1094.42;1.63
1094.66;1.63
1094.91;1.63
1095.15;1.63
1095.39;1.63
1095.63;1.63
1095.87;1.63
1096.11;1.63
1096.35;1.63
1096.59;1.63
1096.83;1.63
1097.08;1.63
1097.32;1.64
1097.56;1.64
1097.80;1.64
1098.04;1.64
1098.28;1.64
1098.52;1.64
1098.76;1.64
1099.00;1.64
1099.24;1.64
1099.49;1.64
1099.73;1.64
1099.97;1.64
1100.21;1.64
1100.45;1.64
1100.69;1.64
1100.93;1.64
1101.17;1.64
1101.41;1.64
1101.66;1.64
1101.90;1.64
1102.14;1.65
1102.38;1.65
1102.62;1.65
1102.86;1.65
1103.10;1.65
1103.34;1.65
1103.58;1.65
1103.82;1.65
1104.07;1.65
1104.31;1.65
1104.55;1.65
1104.79;1.65
1105.03;1.65
1105.27;1.65
1105.51;1.65
1105.75;1.65
1105.99;1.65
1106.24;1.65
1106.48;1.66
1106.72;1.66
1106.96;1.66
1107.20;1.66
1107.44;1.66
1107.68;1.66
1107.92;1.66
1108.16;1.66
1108.41;1.66
1108.65;1.66
1108.89;1.66
1109.13;1.66
1109.37;1.66
1109.61;1.67
1109.85;1.67
1110.09;1.67
1110.33;1.67
1110.57;1.67
1110.82;1.67
1111.06;1.67
1111.30;1.67
1111.54;1.68
1111.78;1.68
1112.02;1.68
1112.26;1.68
1112.50;1.68
1112.74;1.68
1112.99;1.68
1113.23;1.68
1113.47;1.68
1113.71;1.69
1113.95;1.69
1114.19;1.69
1114.43;1.69
1114.67;1.69
1114.91;1.69
1115.15;1.69
1115.40;1.69
1115.64;1.70
1115.88;1.70
1116.12;1.70
1116.36;1.70
1116.60;1.70
1116.84;1.71
1117.08;1.71
1117.32;1.71
1117.57;1.71
1117.81;1.72
1118.05;1.72
1118.29;1.73
1118.53;1.73
1118.77;1.73
1119.01;1.74
1119.25;1.74
1119.49;1.75
1119.73;1.75
1119.98;1.76
1120.22;1.76
1120.46;1.77
1120.70;1.77
1120.94;1.78
1121.18;1.79
1121.42;1.79
1121.66;1.80
1121.90;1.81
1122.15;1.82
1122.39;1.83
1122.63;1.84
1122.87;1.85
1123.11;1.86
1123.35;1.87
1123.59;1.89
1123.83;1.90
1124.07;1.91
1124.32;1.92
1124.56;1.94
1124.80;1.95
1125.04;1.95
1125.28;1.96
1125.52;1.97
1125.76;1.97
1126.00;1.97
1126.24;1.97
1126.48;1.96
1126.73;1.95
1126.97;1.94
1127.21;1.93
1127.45;1.91
1127.69;1.90
1127.93;1.88
1128.17;1.87
1128.41;1.85
1128.65;1.84
1128.90;1.83
1129.14;1.81
1129.38;1.80
1129.62;1.79
1129.86;1.77
1130.10;1.76
1130.34;1.75
1130.58;1.74
1130.82;1.74
1131.06;1.73
1131.31;1.72
1131.55;1.71
1131.79;1.71
1132.03;1.70
1132.27;1.70
1132.51;1.70
1132.75;1.69
1132.99;1.69
1133.23;1.69
1133.48;1.69
1133.72;1.68
1133.96;1.68
1134.20;1.68
1134.44;1.68
1134.68;1.68
1134.92;1.68
1135.16;1.68
1135.40;1.68
1135.65;1.68
1135.89;1.67
1136.13;1.67
1136.37;1.67
1136.61;1.67
1136.85;1.67
1137.09;1.67
1137.33;1.67
1137.57;1.67
1137.81;1.67
1138.06;1.67
1138.30;1.67
1138.54;1.67
1138.78;1.67
1139.02;1.67
1139.26;1.67
1139.50;1.67
1139.74;1.67
1139.98;1.67
1140.23;1.67
1140.47;1.67
1140.71;1.67
1140.95;1.68
1141.19;1.68
1141.43;1.68
1141.67;1.68
1141.91;1.68
1142.15;1.68
1142.39;1.68
1142.64;1.68
1142.88;1.68
1143.12;1.68
1143.36;1.68
1143.60;1.68
1143.84;1.68
1144.08;1.68
1144.32;1.68
1144.56;1.68
1144.81;1.68
1145.05;1.68
1145.29;1.68
1145.53;1.69
1145.77;1.69
1146.01;1.69
1146.25;1.69
1146.49;1.69
1146.73;1.69
1146.97;1.69
1147.22;1.69
1147.46;1.69
1147.70;1.69
1147.94;1.70
1148.18;1.70
1148.42;1.70
1148.66;1.70
1148.90;1.70
1149.14;1.70
1149.39;1.70
1149.63;1.70
1149.87;1.71
1150.11;1.71
1150.35;1.71
1150.59;1.71
1150.83;1.71
1151.07;1.72
1151.31;1.72
1151.56;1.72
1151.80;1.72
1152.04;1.73
1152.28;1.73
1152.52;1.73
1152.76;1.73
1153.00;1.74
1153.24;1.74
1153.48;1.74
1153.72;1.75
1153.97;1.75
1154.21;1.75
1154.45;1.76
1154.69;1.76
1154.93;1.76
1155.17;1.77
1155.41;1.77
1155.65;1.77
1155.89;1.77
1156.14;1.78
1156.38;1.78
1156.62;1.78
1156.86;1.78
1157.10;1.78
1157.34;1.78
1157.58;1.78
1157.82;1.78
1158.06;1.78
1158.30;1.78
1158.55;1.78
1158.79;1.77
1159.03;1.77
1159.27;1.77
1159.51;1.77
1159.75;1.77
1159.99;1.76
1160.23;1.76
1160.47;1.76
1160.72;1.75
1160.96;1.75
1161.20;1.75
1161.44;1.75
1161.68;1.74
1161.92;1.74
1162.16;1.74
1162.40;1.74
1162.64;1.73
1162.89;1.73
1163.13;1.73
1163.37;1.73
1163.61;1.73
1163.85;1.72
1164.09;1.72
1164.33;1.72
1164.57;1.72
1164.81;1.72
1165.05;1.72
1165.30;1.72
1165.54;1.71
1165.78;1.71
1166.02;1.71
1166.26;1.71
1166.50;1.71
1166.74;1.71
1166.98;1.71
1167.22;1.71
1167.47;1.71
1167.71;1.71
1167.95;1.71
1168.19;1.71
1168.43;1.71
1168.67;1.71
1168.91;1.71
1169.15;1.71
1169.39;1.71
1169.63;1.71
1169.88;1.71
1170.12;1.71
1170.36;1.71
1170.60;1.71
1170.84;1.71
1171.08;1.71
1171.32;1.71
1171.56;1.71
1171.80;1.71
1172.05;1.71
1172.29;1.71
1172.53;1.71
1172.77;1.71
1173.01;1.71
1173.25;1.71
1173.49;1.71
1173.73;1.71
1173.97;1.71
1174.21;1.70
1174.46;1.70
1174.70;1.70
1174.94;1.70
1175.18;1.70
1175.42;1.70
1175.66;1.70
1175.90;1.71
1176.14;1.71
1176.38;1.71
1176.63;1.71
1176.87;1.71
1177.11;1.71
1177.35;1.71
1177.59;1.71
1177.83;1.71
1178.07;1.71
1178.31;1.71
1178.55;1.71
1178.80;1.71
1179.04;1.71
1179.28;1.71
1179.52;1.71
1179.76;1.71
1180.00;1.71
1180.24;1.70
1180.48;1.70
1180.72;1.70
1180.96;1.70
1181.21;1.70
1181.45;1.70
1181.69;1.71
1181.93;1.71
1182.17;1.71
1182.41;1.71
1182.65;1.71
1182.89;1.71
1183.13;1.71
1183.38;1.71
1183.62;1.71
1183.86;1.71
1184.10;1.71
1184.34;1.71
1184.58;1.71
1184.82;1.71
1185.06;1.71
1185.30;1.71
1185.54;1.71
1185.79;1.71
1186.03;1.71
1186.27;1.71
1186.51;1.71
1186.75;1.71
1186.99;1.71
1187.23;1.71
1187.47;1.71
1187.71;1.71
1187.96;1.71
1188.20;1.71
1188.44;1.71
1188.68;1.71
1188.92;1.72
1189.16;1.72
1189.40;1.72
1189.64;1.72
1189.88;1.72
1190.13;1.72
1190.37;1.72
1190.61;1.72
1190.85;1.72
1191.09;1.72
1191.33;1.72
1191.57;1.72
1191.81;1.72
1192.05;1.72
1192.29;1.72
1192.54;1.72
1192.78;1.72
1193.02;1.72
1193.26;1.72
1193.50;1.72
1193.74;1.72
1193.98;1.72
1194.22;1.72
1194.46;1.72
1194.71;1.72
1194.95;1.72
1195.19;1.73
1195.43;1.73
1195.67;1.73
1195.91;1.73
1196.15;1.73
1196.39;1.73
1196.63;1.73
1196.87;1.73
1197.12;1.73
1197.36;1.73
1197.60;1.73
1197.84;1.73
1198.08;1.73
1198.32;1.73
1198.56;1.73
1198.80;1.73
1199.04;1.73
1199.29;1.73
1199.53;1.73
1199.77;1.73
1200.01;1.73
1200.25;1.73
1200.49;1.73
1200.73;1.73
1200.97;1.73
1201.21;1.73
1201.46;1.73
1201.70;1.73
1201.94;1.74
1202.18;1.74
1202.42;1.74
1202.66;1.74
1202.90;1.74
1203.14;1.74
1203.38;1.74
1203.62;1.74
1203.87;1.74
1204.11;1.74
1204.35;1.74
1204.59;1.74
1204.83;1.74
1205.07;1.74
1205.31;1.74
1205.55;1.74
1205.79;1.74
1206.04;1.74
1206.28;1.74
1206.52;1.74
1206.76;1.74
1207.00;1.75
1207.24;1.75
1207.48;1.75
1207.72;1.75
1207.96;1.75
1208.20;1.75
1208.45;1.75
1208.69;1.75
1208.93;1.75
1209.17;1.75
1209.41;1.75
1209.65;1.75
1209.89;1.75
1210.13;1.75
1210.37;1.75
1210.62;1.75
1210.86;1.75
1211.10;1.75
1211.34;1.75
1211.58;1.76
1211.82;1.76
1212.06;1.76
1212.30;1.76
1212.54;1.76
1212.78;1.76
1213.03;1.76
1213.27;1.76
1213.51;1.76
1213.75;1.76
1213.99;1.76
1214.23;1.76
1214.47;1.76
1214.71;1.76
1214.95;1.76
1215.20;1.76
1215.44;1.77
1215.68;1.77
1215.92;1.77
1216.16;1.77
1216.40;1.77
1216.64;1.77
1216.88;1.77
1217.12;1.77
1217.37;1.77
1217.61;1.77
1217.85;1.77
1218.09;1.77
1218.33;1.78
1218.57;1.78
1218.81;1.78
1219.05;1.78
1219.29;1.78
1219.53;1.78
1219.78;1.78
1220.02;1.78
1220.26;1.78
1220.50;1.78
1220.74;1.79
1220.98;1.79
1221.22;1.79
1221.46;1.79
1221.70;1.79
1221.95;1.79
1222.19;1.79
1222.43;1.79
1222.67;1.79
1222.91;1.79
1223.15;1.80
1223.39;1.80
1223.63;1.80
1223.87;1.80
1224.11;1.80
1224.36;1.80
1224.60;1.80
1224.84;1.81
1225.08;1.81
1225.32;1.81
1225.56;1.81
1225.80;1.81
1226.04;1.81
1226.28;1.82
1226.53;1.82
1226.77;1.82
1227.01;1.82
1227.25;1.82
1227.49;1.83
1227.73;1.83
1227.97;1.83
1228.21;1.83
1228.45;1.83
1228.70;1.84
1228.94;1.84
1229.18;1.84
1229.42;1.84
1229.66;1.85
1229.90;1.85
1230.14;1.85
1230.38;1.85
1230.62;1.85
1230.86;1.86
1231.11;1.86
1231.35;1.86
1231.59;1.86
1231.83;1.86
1232.07;1.86
1232.31;1.86
1232.55;1.86
1232.79;1.86
1233.03;1.86
1233.28;1.86
1233.52;1.86
1233.76;1.86
1234.00;1.86
1234.24;1.86
1234.48;1.86
1234.72;1.86
1234.96;1.86
1235.20;1.86
1235.44;1.86
1235.69;1.86
1235.93;1.86
1236.17;1.86
1236.41;1.86
1236.65;1.86
1236.89;1.86
1237.13;1.86
1237.37;1.86
1237.61;1.87
1237.86;1.87
1238.10;1.87
1238.34;1.87
1238.58;1.87
1238.82;1.87
1239.06;1.87
1239.30;1.87
1239.54;1.87
1239.78;1.87
1240.03;1.88
1240.27;1.88
1240.51;1.88
1240.75;1.88
1240.99;1.88
1241.23;1.88
1241.47;1.89
1241.71;1.89
1241.95;1.89
1242.19;1.89
1242.44;1.89
1242.68;1.90
1242.92;1.90
1243.16;1.90
1243.40;1.90
1243.64;1.91
1243.88;1.91
1244.12;1.91
1244.36;1.91
1244.61;1.92
1244.85;1.92
1245.09;1.93
1245.33;1.93
1245.57;1.93
1245.81;1.94
1246.05;1.94
1246.29;1.95
1246.53;1.95
1246.77;1.96
1247.02;1.96
1247.26;1.97
1247.50;1.97
1247.74;1.98
1247.98;1.99
1248.22;2.00
1248.46;2.01
1248.70;2.02
1248.94;2.03
1249.19;2.04
1249.43;2.05
1249.67;2.06
1249.91;2.07
1250.15;2.08
1250.39;2.10
1250.63;2.11
1250.87;2.12
1251.11;2.13
1251.35;2.14
1251.60;2.15
1251.84;2.16
1252.08;2.17
1252.32;2.17
1252.56;2.18
1252.80;2.18
1253.04;2.18
1253.28;2.17
1253.52;2.17
1253.77;2.16
1254.01;2.15
1254.25;2.14
1254.49;2.13
1254.73;2.12
1254.97;2.11
1255.21;2.09
1255.45;2.08
1255.69;2.06
1255.94;2.05
1256.18;2.04
1256.42;2.03
1256.66;2.01
1256.90;2.00
1257.14;1.99
1257.38;1.98
1257.62;1.98
1257.86;1.97
1258.10;1.96
1258.35;1.95
1258.59;1.94
1258.83;1.93
1259.07;1.93
1259.31;1.92
1259.55;1.91
1259.79;1.91
1260.03;1.90
1260.27;1.90
1260.52;1.89
1260.76;1.89
1261.00;1.88
1261.24;1.88
1261.48;1.88
1261.72;1.87
1261.96;1.87
1262.20;1.87
1262.44;1.86
1262.68;1.86
1262.93;1.86
1263.17;1.86
1263.41;1.85
1263.65;1.85
1263.89;1.85
1264.13;1.85
1264.37;1.85
1264.61;1.85
1264.85;1.85
1265.10;1.85
1265.34;1.85
1265.58;1.84
1265.82;1.84
1266.06;1.84
1266.30;1.84
1266.54;1.84
1266.78;1.84
1267.02;1.84
1267.27;1.84
1267.51;1.84
1267.75;1.84
1267.99;1.84
1268.23;1.84
1268.47;1.84
1268.71;1.84
1268.95;1.84
1269.19;1.84
1269.43;1.84
1269.68;1.84
1269.92;1.84
1270.16;1.84
1270.40;1.84
1270.64;1.84
1270.88;1.84
1271.12;1.84
1271.36;1.84
1271.60;1.84
1271.85;1.84
1272.09;1.84
1272.33;1.84
1272.57;1.84
1272.81;1.84
1273.05;1.84
1273.29;1.84
1273.53;1.84
1273.77;1.84
1274.01;1.84
1274.26;1.84
1274.50;1.84
1274.74;1.84
1274.98;1.84
1275.22;1.84
1275.46;1.84
1275.70;1.84
1275.94;1.83
1276.18;1.83
1276.43;1.83
1276.67;1.83
1276.91;1.83
1277.15;1.83
1277.39;1.83
1277.63;1.83
1277.87;1.83
1278.11;1.83
1278.35;1.83
1278.59;1.83
1278.84;1.83
1279.08;1.83
1279.32;1.83
1279.56;1.83
1279.80;1.83
1280.04;1.83
1280.28;1.83
1280.52;1.83
1280.76;1.83
1281.01;1.83
1281.25;1.83
1281.49;1.83
1281.73;1.83
1281.97;1.84
1282.21;1.84
1282.45;1.84
1282.69;1.84
1282.93;1.84
1283.18;1.84
1283.42;1.84
1283.66;1.84
1283.90;1.84
1284.14;1.84
1284.38;1.84
1284.62;1.84
1284.86;1.84
1285.10;1.84
1285.34;1.84
1285.59;1.84
1285.83;1.84
1286.07;1.85
1286.31;1.85
1286.55;1.85
1286.79;1.85
1287.03;1.85
1287.27;1.85
1287.51;1.85
1287.76;1.85
1288.00;1.85
1288.24;1.85
1288.48;1.86
1288.72;1.86
1288.96;1.86
1289.20;1.86
1289.44;1.86
1289.68;1.86
1289.92;1.86
1290.17;1.86
1290.41;1.87
1290.65;1.87
1290.89;1.87
1291.13;1.87
1291.37;1.87
1291.61;1.87
1291.85;1.88
1292.09;1.88
1292.34;1.88
1292.58;1.88
1292.82;1.88
1293.06;1.89
1293.30;1.89
1293.54;1.89
1293.78;1.89
1294.02;1.90
1294.26;1.90
1294.51;1.90
1294.75;1.91
1294.99;1.91
1295.23;1.91
1295.47;1.92
1295.71;1.92
1295.95;1.92
1296.19;1.93
1296.43;1.93
1296.67;1.93
1296.92;1.93
1297.16;1.94
1297.40;1.94
1297.64;1.94
1297.88;1.95
1298.12;1.95
1298.36;1.96
1298.60;1.96
1298.84;1.97
1299.09;1.97
1299.33;1.98
1299.57;1.98
1299.81;1.99
1300.05;1.99
1300.29;2.00
1300.53;2.00
1300.77;2.01
1301.01;2.02
1301.25;2.03
1301.50;2.04
1301.74;2.05
1301.98;2.06
1302.22;2.07
1302.46;2.08
1302.70;2.09
1302.94;2.10
1303.18;2.12
1303.42;2.13
1303.67;2.15
1303.91;2.17
1304.15;2.18
1304.39;2.20
1304.63;2.22
1304.87;2.24
1305.11;2.26
1305.35;2.28
1305.59;2.30
1305.83;2.32
1306.08;2.34
1306.32;2.36
1306.56;2.38
1306.80;2.40
1307.04;2.42
1307.28;2.44
1307.52;2.46
1307.76;2.47
1308.00;2.49
1308.25;2.50
1308.49;2.52
1308.73;2.53
1308.97;2.53
1309.21;2.53
1309.45;2.53
1309.69;2.52
1309.93;2.52
1310.17;2.50
1310.42;2.49
1310.66;2.47
1310.90;2.45
1311.14;2.43
1311.38;2.40
1311.62;2.37
1311.86;2.35
1312.10;2.32
1312.34;2.29
1312.58;2.26
1312.83;2.23
1313.07;2.21
1313.31;2.18
1313.55;2.16
1313.79;2.14
1314.03;2.11
1314.27;2.09
1314.51;2.08
1314.75;2.06
1315.00;2.04
1315.24;2.03
1315.48;2.01
1315.72;2.00
1315.96;1.99
1316.20;1.98
1316.44;1.97
1316.68;1.96
1316.92;1.95
1317.16;1.94
1317.41;1.93
1317.65;1.92
1317.89;1.92
1318.13;1.91
1318.37;1.91
1318.61;1.90
1318.85;1.90
1319.09;1.90
1319.33;1.90
1319.58;1.89
1319.82;1.89
1320.06;1.89
1320.30;1.89
1320.54;1.89
1320.78;1.89
1321.02;1.89
1321.26;1.89
1321.50;1.89
1321.75;1.89
1321.99;1.89
1322.23;1.89
1322.47;1.90
1322.71;1.90
1322.95;1.90
1323.19;1.90
1323.43;1.90
1323.67;1.91
1323.91;1.91
1324.16;1.91
1324.40;1.92
1324.64;1.92
1324.88;1.93
1325.12;1.93
1325.36;1.93
1325.60;1.94
1325.84;1.94
1326.08;1.94
1326.33;1.95
1326.57;1.95
1326.81;1.96
1327.05;1.96
1327.29;1.97
1327.53;1.98
1327.77;1.98
1328.01;1.99
1328.25;2.00
1328.49;2.01
1328.74;2.01
1328.98;2.02
1329.22;2.03
1329.46;2.04
1329.70;2.05
1329.94;2.06
1330.18;2.07
1330.42;2.09
1330.66;2.10
1330.91;2.11
1331.15;2.12
1331.39;2.14
1331.63;2.15
1331.87;2.16
1332.11;2.18
1332.35;2.19
1332.59;2.20
1332.83;2.22
1333.08;2.23
1333.32;2.24
1333.56;2.25
1333.80;2.26
1334.04;2.27
1334.28;2.28
1334.52;2.29
1334.76;2.29
1335.00;2.29
1335.24;2.29
1335.49;2.28
1335.73;2.28
1335.97;2.27
1336.21;2.25
1336.45;2.24
1336.69;2.22
1336.93;2.20
1337.17;2.18
1337.41;2.16
1337.66;2.13
1337.90;2.11
1338.14;2.09
1338.38;2.07
1338.62;2.04
1338.86;2.02
1339.10;2.00
1339.34;1.98
1339.58;1.96
1339.82;1.95
1340.07;1.93
1340.31;1.92
1340.55;1.90
1340.79;1.89
1341.03;1.89
1341.27;1.88
1341.51;1.87
1341.75;1.87
1341.99;1.86
1342.24;1.86
1342.48;1.85
1342.72;1.85
1342.96;1.84
1343.20;1.84
1343.44;1.84
1343.68;1.83
1343.92;1.83
1344.16;1.83
1344.41;1.83
1344.65;1.82
1344.89;1.82
1345.13;1.82
1345.37;1.82
1345.61;1.81
1345.85;1.81
1346.09;1.81
1346.33;1.81
1346.57;1.81
1346.82;1.81
1347.06;1.80
1347.30;1.80
1347.54;1.80
1347.78;1.80
1348.02;1.80
1348.26;1.80
1348.50;1.80
1348.74;1.80
1348.99;1.80
1349.23;1.80
1349.47;1.80
1349.71;1.80
1349.95;1.80
1350.19;1.80
1350.43;1.80
1350.67;1.80
1350.91;1.80
1351.15;1.80
1351.40;1.80
1351.64;1.80
1351.88;1.80
1352.12;1.80
1352.36;1.80
1352.60;1.80
1352.84;1.80
1353.08;1.80
1353.32;1.80
1353.57;1.80
1353.81;1.80
1354.05;1.80
1354.29;1.80
1354.53;1.80
1354.77;1.80
1355.01;1.80
1355.25;1.80
1355.49;1.81
1355.73;1.81
1355.98;1.81
1356.22;1.81
1356.46;1.81
1356.70;1.81
1356.94;1.81
1357.18;1.82
1357.42;1.82
1357.66;1.82
1357.90;1.82
1358.15;1.82
1358.39;1.82
1358.63;1.83
1358.87;1.83
1359.11;1.83
1359.35;1.83
1359.59;1.83
1359.83;1.84
1360.07;1.84
1360.32;1.84
1360.56;1.85
1360.80;1.85
1361.04;1.85
1361.28;1.86
1361.52;1.86
1361.76;1.87
1362.00;1.87
1362.24;1.87
1362.48;1.88
1362.73;1.89
1362.97;1.89
1363.21;1.90
1363.45;1.91
1363.69;1.92
1363.93;1.93
1364.17;1.93
1364.41;1.94
1364.65;1.95
1364.90;1.95
1365.14;1.96
1365.38;1.97
1365.62;1.98
1365.86;1.98
1366.10;1.99
1366.34;2.00
1366.58;2.00
1366.82;2.01
1367.06;2.01
1367.31;2.02
1367.55;2.02
1367.79;2.02
1368.03;2.02
1368.27;2.02
1368.51;2.02
1368.75;2.02
1368.99;2.02
1369.23;2.02
1369.48;2.01
1369.72;2.01
1369.96;2.00
1370.20;2.00
1370.44;1.99
1370.68;1.98
1370.92;1.98
1371.16;1.97
1371.40;1.96
1371.65;1.96
1371.89;1.95
1372.13;1.94
1372.37;1.93
1372.61;1.93
1372.85;1.92
1373.09;1.91
1373.33;1.91
1373.57;1.90
1373.81;1.89
1374.06;1.89
1374.30;1.88
1374.54;1.88
1374.78;1.87
1375.02;1.87
1375.26;1.86
1375.50;1.86
1375.74;1.86
1375.98;1.86
1376.23;1.85
1376.47;1.85
1376.71;1.85
1376.95;1.85
1377.19;1.84
1377.43;1.84
1377.67;1.84
1377.91;1.84
1378.15;1.83
1378.39;1.83
1378.64;1.83
1378.88;1.83
1379.12;1.83
1379.36;1.83
1379.60;1.83
1379.84;1.83
1380.08;1.83
1380.32;1.83
1380.56;1.83
1380.81;1.83
1381.05;1.83
1381.29;1.83
1381.53;1.83
1381.77;1.83
1382.01;1.83
1382.25;1.84
1382.49;1.84
1382.73;1.84
1382.97;1.85
1383.22;1.85
1383.46;1.85
1383.70;1.85
1383.94;1.85
1384.18;1.85
1384.42;1.85
1384.66;1.85
1384.90;1.85
1385.14;1.85
1385.39;1.84
1385.63;1.84
1385.87;1.84
1386.11;1.83
1386.35;1.83
1386.59;1.83
1386.83;1.82
1387.07;1.82
1387.31;1.82
1387.56;1.82
1387.80;1.82
1388.04;1.82
1388.28;1.81
1388.52;1.81
1388.76;1.81
1389.00;1.81
1389.24;1.81
1389.48;1.81
1389.72;1.81
1389.97;1.81
1390.21;1.81
1390.45;1.81
1390.69;1.81
1390.93;1.81
1391.17;1.81
1391.41;1.81
1391.65;1.81
1391.89;1.81
1392.14;1.81
1392.38;1.81
1392.62;1.81
1392.86;1.81
1393.10;1.81
1393.34;1.81
1393.58;1.81
1393.82;1.81
1394.06;1.81
1394.30;1.81
1394.55;1.81
1394.79;1.81
1395.03;1.81
1395.27;1.81
1395.51;1.81
1395.75;1.81
1395.99;1.81
1396.23;1.82
1396.47;1.82
1396.72;1.82
1396.96;1.82
1397.20;1.82
1397.44;1.82
1397.68;1.82
1397.92;1.82
1398.16;1.82
1398.40;1.82
1398.64;1.82
1398.89;1.82
1399.13;1.82
1399.37;1.83
1399.61;1.83
1399.85;1.83
1400.09;1.83
1400.33;1.83
1400.57;1.83
1400.81;1.83
1401.05;1.84
1401.30;1.84
1401.54;1.84
1401.78;1.84
1402.02;1.84
1402.26;1.84
1402.50;1.84
1402.74;1.84
1402.98;1.84
1403.22;1.84
1403.47;1.84
1403.71;1.84
1403.95;1.84
1404.19;1.84
1404.43;1.84
1404.67;1.84
1404.91;1.85
1405.15;1.85
1405.39;1.85
1405.63;1.85
1405.88;1.85
1406.12;1.85
1406.36;1.86
1406.60;1.86
1406.84;1.86
1407.08;1.86
1407.32;1.86
1407.56;1.86
1407.80;1.87
1408.05;1.87
1408.29;1.87
1408.53;1.88
1408.77;1.88
1409.01;1.88
1409.25;1.89
1409.49;1.89
1409.73;1.90
1409.97;1.90
1410.21;1.90
1410.46;1.91
1410.70;1.91
1410.94;1.92
1411.18;1.92
1411.42;1.92
1411.66;1.93
1411.90;1.94
1412.14;1.94
1412.38;1.95
1412.63;1.96
1412.87;1.97
1413.11;1.98
1413.35;1.99
1413.59;2.00
1413.83;2.01
1414.07;2.02
1414.31;2.04
1414.55;2.05
1414.80;2.07
1415.04;2.09
1415.28;2.11
1415.52;2.12
1415.76;2.14
1416.00;2.16
1416.24;2.19
1416.48;2.21
1416.72;2.23
1416.96;2.25
1417.21;2.27
1417.45;2.29
1417.69;2.30
1417.93;2.31
1418.17;2.32
1418.41;2.32
1418.65;2.32
1418.89;2.33
1419.13;2.34
1419.38;2.34
1419.62;2.35
1419.86;2.36
1420.10;2.36
1420.34;2.36
1420.58;2.36
1420.82;2.35
1421.06;2.34
1421.30;2.33
1421.54;2.31
1421.79;2.29
1422.03;2.27
1422.27;2.24
1422.51;2.21
1422.75;2.18
1422.99;2.15
1423.23;2.12
1423.47;2.08
1423.71;2.04
1423.96;2.01
1424.20;1.98
1424.44;1.95
1424.68;1.93
1424.92;1.92
1425.16;1.90
1425.40;1.89
1425.64;1.88
1425.88;1.87
1426.13;1.86
1426.37;1.86
1426.61;1.85
1426.85;1.84
1427.09;1.84
1427.33;1.83
1427.57;1.83
1427.81;1.83
1428.05;1.82
1428.29;1.82
1428.54;1.82
1428.78;1.82
1429.02;1.81
1429.26;1.81
1429.50;1.81
1429.74;1.81
1429.98;1.81
1430.22;1.81
1430.46;1.81
1430.71;1.81
1430.95;1.81
1431.19;1.81
1431.43;1.81
1431.67;1.81
1431.91;1.80
1432.15;1.81
1432.39;1.81
1432.63;1.81
1432.87;1.81
1433.12;1.81
1433.36;1.81
1433.60;1.81
1433.84;1.81
1434.08;1.81
1434.32;1.81
1434.56;1.81
1434.80;1.81
1435.04;1.81
1435.29;1.81
1435.53;1.81
1435.77;1.81
1436.01;1.81
1436.25;1.82
1436.49;1.82
1436.73;1.82
1436.97;1.83
1437.21;1.83
1437.46;1.84
1437.70;1.84
1437.94;1.84
1438.18;1.84
1438.42;1.84
1438.66;1.84
1438.90;1.85
1439.14;1.85
1439.38;1.85
1439.62;1.86
1439.87;1.86
1440.11;1.86
1440.35;1.86
1440.59;1.87
1440.83;1.87
1441.07;1.87
1441.31;1.87
1441.55;1.88
1441.79;1.88
1442.04;1.88
1442.28;1.88
1442.52;1.89
1442.76;1.89
1443.00;1.89
1443.24;1.89
1443.48;1.90
1443.72;1.90
1443.96;1.90
1444.20;1.90
1444.45;1.90
1444.69;1.91
1444.93;1.91
1445.17;1.91
1445.41;1.92
1445.65;1.92
1445.89;1.92
1446.13;1.92
1446.37;1.93
1446.62;1.93
1446.86;1.93
1447.10;1.93
1447.34;1.94
1447.58;1.94
1447.82;1.95
1448.06;1.96
1448.30;1.96
1448.54;1.97
1448.78;1.98
1449.03;1.98
1449.27;1.98
1449.51;1.99
1449.75;1.99
1449.99;1.99
1450.23;2.00
1450.47;2.00
1450.71;2.00
1450.95;2.00
1451.20;2.00
1451.44;2.00
1451.68;2.00
1451.92;2.00
1452.16;2.00
1452.40;2.00
1452.64;2.00
1452.88;1.99
1453.12;1.99
1453.37;1.98
1453.61;1.98
1453.85;1.97
1454.09;1.97
1454.33;1.96
1454.57;1.96
1454.81;1.95
1455.05;1.95
1455.29;1.94
1455.53;1.94
1455.78;1.94
1456.02;1.93
1456.26;1.93
1456.50;1.92
1456.74;1.92
1456.98;1.91
1457.22;1.91
1457.46;1.91
1457.70;1.90
1457.95;1.90
1458.19;1.90
1458.43;1.90
1458.67;1.90
1458.91;1.90
1459.15;1.90
1459.39;1.90
1459.63;1.90
1459.87;1.90
1460.11;1.90
1460.36;1.90
1460.60;1.90
1460.84;1.89
1461.08;1.89
1461.32;1.89
1461.56;1.89
1461.80;1.89
1462.04;1.89
1462.28;1.89
1462.53;1.89
1462.77;1.89
1463.01;1.89
1463.25;1.89
1463.49;1.89
1463.73;1.89
1463.97;1.89
1464.21;1.88
1464.45;1.88
1464.70;1.89
1464.94;1.89
1465.18;1.89
1465.42;1.89
1465.66;1.89
1465.90;1.89
1466.14;1.89
1466.38;1.89
1466.62;1.89
1466.86;1.90
1467.11;1.90
1467.35;1.90
1467.59;1.90
1467.83;1.90
1468.07;1.90
1468.31;1.90
1468.55;1.90
1468.79;1.90
1469.03;1.90
1469.28;1.90
1469.52;1.90
1469.76;1.90
1470.00;1.90
1470.24;1.90
1470.48;1.90
1470.72;1.90
1470.96;1.90
1471.20;1.90
1471.44;1.89
1471.69;1.89
1471.93;1.89
1472.17;1.89
1472.41;1.88
1472.65;1.88
1472.89;1.88
1473.13;1.88
1473.37;1.88
1473.61;1.88
1473.86;1.88
1474.10;1.88
1474.34;1.88
1474.58;1.88
1474.82;1.88
1475.06;1.88
1475.30;1.88
1475.54;1.88
1475.78;1.88
1476.03;1.88
1476.27;1.88
1476.51;1.88
1476.75;1.88
1476.99;1.88
1477.23;1.88
1477.47;1.88
1477.71;1.88
1477.95;1.88
1478.19;1.88
1478.44;1.88
1478.68;1.88
1478.92;1.88
1479.16;1.88
1479.40;1.88
1479.64;1.88
1479.88;1.88
1480.12;1.88
1480.36;1.88
1480.61;1.88
1480.85;1.88
1481.09;1.88
1481.33;1.88
1481.57;1.88
1481.81;1.88
1482.05;1.88
1482.29;1.88
1482.53;1.88
1482.77;1.88
1483.02;1.88
1483.26;1.88
1483.50;1.88
1483.74;1.88
1483.98;1.88
1484.22;1.88
1484.46;1.88
1484.70;1.88
1484.94;1.88
1485.19;1.88
1485.43;1.88
1485.67;1.88
1485.91;1.88
1486.15;1.88
1486.39;1.88
1486.63;1.87
1486.87;1.87
1487.11;1.87
1487.35;1.87
1487.60;1.87
1487.84;1.87
1488.08;1.87
1488.32;1.87
1488.56;1.87
1488.80;1.87
1489.04;1.87
1489.28;1.87
1489.52;1.87
1489.77;1.87
1490.01;1.87
1490.25;1.87
1490.49;1.87
1490.73;1.87
1490.97;1.88
1491.21;1.88
1491.45;1.88
1491.69;1.88
1491.94;1.88
1492.18;1.88
1492.42;1.88
1492.66;1.88
1492.90;1.88
1493.14;1.88
1493.38;1.88
1493.62;1.87
1493.86;1.87
1494.10;1.87
1494.35;1.87
1494.59;1.87
1494.83;1.87
1495.07;1.87
1495.31;1.87
1495.55;1.87
1495.79;1.87
1496.03;1.87
1496.27;1.88
1496.52;1.88
1496.76;1.88
1497.00;1.88
1497.24;1.88
1497.48;1.88
1497.72;1.88
1497.96;1.88
1498.20;1.88
1498.44;1.88
1498.68;1.88
1498.93;1.88
1499.17;1.88
1499.41;1.88
1499.65;1.88
1499.89;1.88
1500.13;1.88
1500.37;1.88
1500.61;1.88
1500.85;1.89
1501.10;1.89
1501.34;1.89
1501.58;1.89
1501.82;1.89
1502.06;1.89
1502.30;1.89
1502.54;1.90
1502.78;1.90
1503.02;1.90
1503.27;1.90
1503.51;1.90
1503.75;1.90
1503.99;1.90
1504.23;1.90
1504.47;1.90
1504.71;1.90
1504.95;1.90
1505.19;1.89
1505.43;1.89
1505.68;1.89
1505.92;1.89
1506.16;1.89
1506.40;1.89
1506.64;1.89
1506.88;1.90
1507.12;1.90
1507.36;1.91
1507.60;1.91
1507.85;1.91
1508.09;1.91
1508.33;1.92
1508.57;1.92
1508.81;1.92
1509.05;1.92
1509.29;1.92
1509.53;1.92
1509.77;1.92
1510.01;1.92
1510.26;1.92
1510.50;1.91
1510.74;1.91
1510.98;1.91
1511.22;1.91
1511.46;1.91
1511.70;1.90
1511.94;1.90
1512.18;1.90
1512.43;1.89
1512.67;1.89
1512.91;1.89
1513.15;1.89
1513.39;1.88
1513.63;1.88
1513.87;1.88
1514.11;1.88
1514.35;1.87
1514.59;1.87
1514.84;1.87
1515.08;1.86
1515.32;1.86
1515.56;1.86
1515.80;1.85
1516.04;1.85
1516.28;1.85
1516.52;1.85
1516.76;1.84
1517.01;1.84
1517.25;1.84
1517.49;1.84
1517.73;1.85
1517.97;1.85
1518.21;1.85
1518.45;1.85
1518.69;1.85
1518.93;1.85
1519.18;1.85
1519.42;1.84
1519.66;1.84
1519.90;1.84
1520.14;1.84
1520.38;1.84
1520.62;1.84
1520.86;1.84
1521.10;1.84
1521.34;1.84
1521.59;1.84
1521.83;1.84
1522.07;1.84
1522.31;1.84
1522.55;1.84
1522.79;1.84
1523.03;1.84
1523.27;1.84
1523.51;1.84
1523.76;1.84
1524.00;1.84
1524.24;1.84
1524.48;1.84
1524.72;1.84
1524.96;1.84
1525.20;1.84
1525.44;1.84
1525.68;1.84
1525.92;1.84
1526.17;1.84
1526.41;1.84
1526.65;1.84
1526.89;1.84
1527.13;1.84
1527.37;1.84
1527.61;1.84
1527.85;1.84
1528.09;1.84
1528.34;1.84
1528.58;1.84
1528.82;1.85
1529.06;1.85
1529.30;1.85
1529.54;1.85
1529.78;1.85
1530.02;1.85
1530.26;1.85
1530.51;1.85
1530.75;1.85
1530.99;1.85
1531.23;1.85
1531.47;1.85
1531.71;1.85
1531.95;1.85
1532.19;1.85
1532.43;1.85
1532.67;1.85
1532.92;1.85
1533.16;1.85
1533.40;1.85
1533.64;1.85
1533.88;1.85
1534.12;1.86
1534.36;1.86
1534.60;1.86
1534.84;1.86
1535.09;1.86
1535.33;1.86
1535.57;1.86
1535.81;1.86
1536.05;1.86
1536.29;1.86
1536.53;1.86
1536.77;1.86
1537.01;1.86
1537.25;1.86
1537.50;1.86
1537.74;1.85
1537.98;1.85
1538.22;1.85
1538.46;1.85
1538.70;1.85
1538.94;1.85
1539.18;1.85
1539.42;1.85
1539.67;1.85
1539.91;1.86
1540.15;1.86
1540.39;1.86
1540.63;1.86
1540.87;1.86
1541.11;1.86
1541.35;1.86
1541.59;1.86
1541.83;1.86
1542.08;1.86
1542.32;1.86
1542.56;1.86
1542.80;1.86
1543.04;1.86
1543.28;1.87
1543.52;1.87
1543.76;1.87
1544.00;1.87
1544.25;1.87
1544.49;1.87
1544.73;1.87
1544.97;1.87
1545.21;1.88
1545.45;1.88
1545.69;1.88
1545.93;1.88
1546.17;1.89
1546.42;1.89
1546.66;1.89
1546.90;1.89
1547.14;1.89
1547.38;1.89
1547.62;1.89
1547.86;1.89
1548.10;1.89
1548.34;1.89
1548.58;1.89
1548.83;1.89
1549.07;1.89
1549.31;1.89
1549.55;1.89
1549.79;1.90
1550.03;1.90
1550.27;1.90
1550.51;1.90
1550.75;1.90
1551.00;1.90
1551.24;1.91
1551.48;1.91
1551.72;1.91
1551.96;1.91
1552.20;1.91
1552.44;1.91
1552.68;1.91
1552.92;1.91
1553.16;1.91
1553.41;1.91
1553.65;1.91
1553.89;1.91
1554.13;1.92
1554.37;1.92
1554.61;1.92
1554.85;1.93
1555.09;1.93
1555.33;1.93
1555.58;1.93
1555.82;1.93
1556.06;1.93
1556.30;1.93
1556.54;1.93
1556.78;1.93
1557.02;1.93
1557.26;1.92
1557.50;1.92
1557.75;1.92
1557.99;1.91
1558.23;1.90
1558.47;1.89
1558.71;1.89
1558.95;1.89
1559.19;1.90
1559.43;1.91
1559.67;1.93
1559.91;1.94
1560.16;1.95
1560.40;1.95
1560.64;1.96
1560.88;1.96
1561.12;1.96
1561.36;1.96
1561.60;1.96
1561.84;1.96
1562.08;1.96
1562.33;1.96
1562.57;1.96
1562.81;1.96
1563.05;1.96
1563.29;1.97
1563.53;1.97
1563.77;1.97
1564.01;1.97
1564.25;1.97
1564.49;1.97
1564.74;1.97
1564.98;1.97
1565.22;1.97
1565.46;1.98
1565.70;1.98
1565.94;1.98
1566.18;1.98
1566.42;1.98
1566.66;1.98
1566.91;1.98
1567.15;1.99
1567.39;1.99
1567.63;1.99
1567.87;1.99
1568.11;1.99
1568.35;1.99
1568.59;1.99
1568.83;1.99
1569.08;1.99
1569.32;1.99
1569.56;2.00
1569.80;2.00
1570.04;2.01
1570.28;2.01
1570.52;2.01
1570.76;2.01
1571.00;2.01
1571.24;2.01
1571.49;2.02
1571.73;2.02
1571.97;2.02
1572.21;2.02
1572.45;2.02
1572.69;2.03
1572.93;2.03
1573.17;2.03
1573.41;2.03
1573.66;2.03
1573.90;2.04
1574.14;2.04
1574.38;2.04
1574.62;2.04
1574.86;2.04
1575.10;2.04
1575.34;2.04
1575.58;2.05
1575.82;2.05
1576.07;2.06
1576.31;2.07
1576.55;2.08
1576.79;2.08
1577.03;2.08
1577.27;2.09
1577.51;2.09
1577.75;2.09
1577.99;2.09
1578.24;2.10
1578.48;2.10
1578.72;2.10
1578.96;2.11
1579.20;2.11
1579.44;2.12
1579.68;2.12
1579.92;2.12
1580.16;2.13
1580.41;2.13
1580.65;2.14
1580.89;2.14
1581.13;2.14
1581.37;2.15
1581.61;2.15
1581.85;2.16
1582.09;2.16
1582.33;2.16
1582.57;2.17
1582.82;2.17
1583.06;2.18
1583.30;2.18
1583.54;2.19
1583.78;2.19
1584.02;2.20
1584.26;2.20
1584.50;2.20
1584.74;2.21
1584.99;2.21
1585.23;2.22
1585.47;2.22
1585.71;2.23
1585.95;2.24
1586.19;2.24
1586.43;2.25
1586.67;2.25
1586.91;2.26
1587.15;2.27
1587.40;2.27
1587.64;2.28
1587.88;2.29
1588.12;2.29
1588.36;2.30
1588.60;2.31
1588.84;2.31
1589.08;2.32
1589.32;2.33
1589.57;2.33
1589.81;2.34
1590.05;2.35
1590.29;2.36
1590.53;2.37
1590.77;2.38
1591.01;2.39
1591.25;2.40
1591.49;2.41
1591.73;2.42
1591.98;2.43
1592.22;2.44
1592.46;2.45
1592.70;2.46
1592.94;2.47
1593.18;2.49
1593.42;2.50
1593.66;2.51
1593.90;2.52
1594.15;2.54
1594.39;2.55
1594.63;2.56
1594.87;2.58
1595.11;2.59
1595.35;2.61
1595.59;2.62
1595.83;2.64
1596.07;2.65
1596.32;2.67
1596.56;2.69
1596.80;2.70
1597.04;2.72
1597.28;2.74
1597.52;2.75
1597.76;2.77
1598.00;2.78
1598.24;2.80
1598.48;2.82
1598.73;2.84
1598.97;2.86
1599.21;2.88
1599.45;2.90
1599.69;2.92
1599.93;2.94
1600.17;2.95
1600.41;2.97
1600.65;2.98
1600.90;3.00
1601.14;3.01
1601.38;3.01
1601.62;3.02
1601.86;3.03
1602.10;3.03
1602.34;3.04
1602.58;3.05
1602.82;3.05
1603.06;3.06
1603.31;3.06
1603.55;3.06
1603.79;3.07
1604.03;3.07
1604.27;3.07
1604.51;3.07
1604.75;3.07
1604.99;3.07
1605.23;3.07
1605.48;3.07
1605.72;3.07
1605.96;3.06
1606.20;3.05
1606.44;3.04
1606.68;3.03
1606.92;3.02
1607.16;3.01
1607.40;3.00
1607.65;3.00
1607.89;3.00
1608.13;2.99
1608.37;2.99
1608.61;2.98
1608.85;2.97
1609.09;2.96
1609.33;2.95
1609.57;2.94
1609.81;2.93
1610.06;2.91
1610.30;2.90
1610.54;2.89
1610.78;2.88
1611.02;2.87
1611.26;2.86
1611.50;2.85
1611.74;2.83
1611.98;2.82
1612.23;2.81
1612.47;2.79
1612.71;2.78
1612.95;2.77
1613.19;2.75
1613.43;2.74
1613.67;2.73
1613.91;2.72
1614.15;2.70
1614.39;2.69
1614.64;2.68
1614.88;2.67
1615.12;2.66
1615.36;2.65
1615.60;2.64
1615.84;2.62
1616.08;2.61
1616.32;2.59
1616.56;2.56
1616.81;2.54
1617.05;2.52
1617.29;2.50
1617.53;2.49
1617.77;2.48
1618.01;2.47
1618.25;2.46
1618.49;2.45
1618.73;2.44
1618.97;2.43
1619.22;2.42
1619.46;2.41
1619.70;2.40
1619.94;2.39
1620.18;2.38
1620.42;2.37
1620.66;2.36
1620.90;2.35
1621.14;2.34
1621.39;2.33
1621.63;2.32
1621.87;2.31
1622.11;2.30
1622.35;2.29
1622.59;2.28
1622.83;2.27
1623.07;2.26
1623.31;2.25
1623.56;2.23
1623.80;2.22
1624.04;2.21
1624.28;2.20
1624.52;2.20
1624.76;2.19
1625.00;2.19
1625.24;2.18
1625.48;2.17
1625.72;2.17
1625.97;2.16
1626.21;2.16
1626.45;2.15
1626.69;2.15
1626.93;2.14
1627.17;2.13
1627.41;2.13
1627.65;2.12
1627.89;2.12
1628.14;2.11
1628.38;2.11
1628.62;2.11
1628.86;2.11
1629.10;2.10
1629.34;2.10
1629.58;2.10
1629.82;2.10
1630.06;2.10
1630.30;2.10
1630.55;2.09
1630.79;2.09
1631.03;2.09
1631.27;2.09
1631.51;2.09
1631.75;2.10
1631.99;2.10
1632.23;2.10
1632.47;2.10
1632.72;2.10
1632.96;2.10
1633.20;2.10
1633.44;2.10
1633.68;2.11
1633.92;2.11
1634.16;2.11
1634.40;2.11
1634.64;2.11
1634.89;2.11
1635.13;2.12
1635.37;2.13
1635.61;2.13
1635.85;2.14
1636.09;2.14
1636.33;2.14
1636.57;2.15
1636.81;2.15
1637.05;2.15
1637.30;2.15
1637.54;2.15
1637.78;2.15
1638.02;2.15
1638.26;2.15
1638.50;2.15
1638.74;2.15
1638.98;2.15
1639.22;2.15
1639.47;2.15
1639.71;2.15
1639.95;2.14
1640.19;2.14
1640.43;2.14
1640.67;2.14
1640.91;2.13
1641.15;2.13
1641.39;2.13
1641.63;2.13
1641.88;2.12
1642.12;2.12
1642.36;2.12
1642.60;2.11
1642.84;2.11
1643.08;2.11
1643.32;2.11
1643.56;2.10
1643.80;2.10
1644.05;2.10
1644.29;2.09
1644.53;2.09
1644.77;2.09
1645.01;2.09
1645.25;2.08
1645.49;2.08
1645.73;2.08
1645.97;2.07
1646.21;2.07
1646.46;2.07
1646.70;2.07
1646.94;2.07
1647.18;2.07
1647.42;2.08
1647.66;2.08
1647.90;2.08
1648.14;2.08
1648.38;2.08
1648.63;2.09
1648.87;2.09
1649.11;2.09
1649.35;2.09
1649.59;2.09
1649.83;2.09
1650.07;2.09
1650.31;2.09
1650.55;2.10
1650.80;2.10
1651.04;2.10
1651.28;2.10
1651.52;2.10
1651.76;2.10
1652.00;2.10
1652.24;2.10
1652.48;2.11
1652.72;2.11
1652.96;2.11
1653.21;2.11
1653.45;2.12
1653.69;2.13
1653.93;2.14
1654.17;2.15
1654.41;2.16
1654.65;2.17
1654.89;2.17
1655.13;2.18
1655.38;2.18
1655.62;2.19
1655.86;2.19
1656.10;2.20
1656.34;2.20
1656.58;2.21
1656.82;2.21
1657.06;2.22
1657.30;2.22
1657.54;2.23
1657.79;2.23
1658.03;2.24
1658.27;2.25
1658.51;2.25
1658.75;2.26
1658.99;2.27
1659.23;2.27
1659.47;2.28
1659.71;2.28
1659.96;2.29
1660.20;2.30
1660.44;2.31
1660.68;2.31
1660.92;2.32
1661.16;2.33
1661.40;2.33
1661.64;2.34
1661.88;2.35
1662.13;2.36
1662.37;2.37
1662.61;2.38
1662.85;2.39
1663.09;2.40
1663.33;2.41
1663.57;2.42
1663.81;2.43
1664.05;2.44
1664.29;2.45
1664.54;2.46
1664.78;2.47
1665.02;2.48
1665.26;2.49
1665.50;2.50
1665.74;2.51
1665.98;2.52
1666.22;2.53
1666.46;2.54
1666.71;2.55
1666.95;2.56
1667.19;2.57
1667.43;2.58
1667.67;2.58
1667.91;2.59
1668.15;2.60
1668.39;2.61
1668.63;2.62
1668.87;2.63
1669.12;2.65
1669.36;2.66
1669.60;2.68
1669.84;2.69
1670.08;2.71
1670.32;2.72
1670.56;2.73
1670.80;2.74
1671.04;2.75
1671.29;2.76
1671.53;2.77
1671.77;2.78
1672.01;2.79
1672.25;2.79
1672.49;2.80
1672.73;2.80
1672.97;2.81
1673.21;2.81
1673.46;2.81
1673.70;2.82
1673.94;2.82
1674.18;2.82
1674.42;2.83
1674.66;2.83
1674.90;2.83
1675.14;2.82
1675.38;2.82
1675.62;2.81
1675.87;2.80
1676.11;2.80
1676.35;2.80
1676.59;2.79
1676.83;2.78
1677.07;2.78
1677.31;2.77
1677.55;2.76
1677.79;2.75
1678.04;2.74
1678.28;2.74
1678.52;2.73
1678.76;2.72
1679.00;2.71
1679.24;2.70
1679.48;2.70
1679.72;2.68
1679.96;2.67
1680.20;2.66
1680.45;2.65
1680.69;2.64
1680.93;2.63
1681.17;2.62
1681.41;2.61
1681.65;2.60
1681.89;2.60
1682.13;2.59
1682.37;2.58
1682.62;2.57
1682.86;2.57
1683.10;2.56
1683.34;2.55
1683.58;2.54
1683.82;2.54
1684.06;2.52
1684.30;2.49
1684.54;2.46
1684.78;2.44
1685.03;2.42
1685.27;2.41
1685.51;2.40
1685.75;2.39
1685.99;2.39
1686.23;2.38
1686.47;2.37
1686.71;2.36
1686.95;2.35
1687.20;2.35
1687.44;2.34
1687.68;2.32
1687.92;2.31
1688.16;2.30
1688.40;2.29
1688.64;2.28
1688.88;2.27
1689.12;2.26
1689.37;2.25
1689.61;2.25
1689.85;2.24
1690.09;2.23
1690.33;2.22
1690.57;2.21
1690.81;2.21
1691.05;2.20
1691.29;2.19
1691.53;2.19
1691.78;2.18
1692.02;2.17
1692.26;2.17
1692.50;2.16
1692.74;2.15
1692.98;2.15
1693.22;2.14
1693.46;2.13
1693.70;2.13
1693.95;2.12
1694.19;2.12
1694.43;2.11
1694.67;2.11
1694.91;2.10
1695.15;2.10
1695.39;2.09
1695.63;2.08
1695.87;2.08
1696.11;2.07
1696.36;2.06
1696.60;2.06
1696.84;2.06
1697.08;2.06
1697.32;2.05
1697.56;2.05
1697.80;2.05
1698.04;2.05
1698.28;2.04
1698.53;2.04
1698.77;2.04
1699.01;2.04
1699.25;2.03
1699.49;2.03
1699.73;2.02
1699.97;2.01
1700.21;2.00
1700.45;1.99
1700.70;1.99
1700.94;2.00
1701.18;2.00
1701.42;2.00
1701.66;2.00
1701.90;2.00
1702.14;1.99
1702.38;1.99
1702.62;1.99
1702.86;1.99
1703.11;1.99
1703.35;1.98
1703.59;1.98
1703.83;1.98
1704.07;1.98
1704.31;1.97
1704.55;1.97
1704.79;1.97
1705.03;1.96
1705.28;1.96
1705.52;1.96
1705.76;1.96
1706.00;1.95
1706.24;1.95
1706.48;1.95
1706.72;1.95
1706.96;1.95
1707.20;1.95
1707.44;1.94
1707.69;1.94
1707.93;1.94
1708.17;1.94
1708.41;1.94
1708.65;1.93
1708.89;1.93
1709.13;1.93
1709.37;1.93
1709.61;1.93
1709.86;1.92
1710.10;1.92
1710.34;1.92
1710.58;1.92
1710.82;1.92
1711.06;1.92
1711.30;1.91
1711.54;1.91
1711.78;1.91
1712.03;1.91
1712.27;1.91
1712.51;1.90
1712.75;1.90
1712.99;1.90
1713.23;1.90
1713.47;1.90
1713.71;1.89
1713.95;1.89
1714.19;1.89
1714.44;1.89
1714.68;1.89
1714.92;1.89
1715.16;1.88
1715.40;1.88
1715.64;1.88
1715.88;1.88
1716.12;1.88
1716.36;1.88
1716.61;1.88
1716.85;1.87
1717.09;1.87
1717.33;1.87
1717.57;1.87
1717.81;1.87
1718.05;1.87
1718.29;1.87
1718.53;1.87
1718.77;1.87
1719.02;1.87
1719.26;1.87
1719.50;1.87
1719.74;1.87
1719.98;1.87
1720.22;1.86
1720.46;1.86
1720.70;1.86
1720.94;1.86
1721.19;1.86
1721.43;1.86
1721.67;1.86
1721.91;1.86
1722.15;1.86
1722.39;1.86
1722.63;1.85
1722.87;1.85
1723.11;1.85
1723.35;1.85
1723.60;1.85
1723.84;1.85
1724.08;1.85
1724.32;1.85
1724.56;1.85
1724.80;1.85
1725.04;1.85
1725.28;1.85
1725.52;1.84
1725.77;1.84
1726.01;1.84
1726.25;1.84
1726.49;1.84
1726.73;1.84
1726.97;1.84
1727.21;1.84
1727.45;1.84
1727.69;1.84
1727.94;1.84
1728.18;1.83
1728.42;1.83
1728.66;1.83
1728.90;1.83
1729.14;1.83
1729.38;1.83
1729.62;1.83
1729.86;1.83
1730.10;1.83
1730.35;1.83
1730.59;1.83
1730.83;1.83
1731.07;1.83
1731.31;1.82
1731.55;1.82
1731.79;1.82
1732.03;1.82
1732.27;1.82
1732.52;1.82
1732.76;1.82
1733.00;1.81
1733.24;1.81
1733.48;1.81
1733.72;1.81
1733.96;1.81
1734.20;1.81
1734.44;1.82
1734.68;1.82
1734.93;1.82
1735.17;1.82
1735.41;1.82
1735.65;1.82
1735.89;1.82
1736.13;1.82
1736.37;1.82
1736.61;1.82
1736.85;1.82
1737.10;1.82
1737.34;1.82
1737.58;1.82
1737.82;1.81
1738.06;1.81
1738.30;1.81
1738.54;1.81
1738.78;1.81
1739.02;1.81
1739.27;1.81
1739.51;1.81
1739.75;1.81
1739.99;1.81
1740.23;1.81
1740.47;1.81
1740.71;1.81
1740.95;1.81
1741.19;1.81
1741.43;1.81
1741.68;1.81
1741.92;1.81
1742.16;1.81
1742.40;1.81
1742.64;1.81
1742.88;1.81
1743.12;1.81
1743.36;1.81
1743.60;1.81
1743.85;1.81
1744.09;1.81
1744.33;1.81
1744.57;1.81
1744.81;1.81
1745.05;1.81
1745.29;1.81
1745.53;1.81
1745.77;1.81
1746.01;1.81
1746.26;1.81
1746.50;1.81
1746.74;1.81
1746.98;1.81
1747.22;1.81
1747.46;1.81
1747.70;1.81
1747.94;1.81
1748.18;1.81
1748.43;1.81
1748.67;1.81
1748.91;1.81
1749.15;1.81
1749.39;1.81
1749.63;1.81
1749.87;1.81
1750.11;1.81
1750.35;1.81
1750.59;1.81
1750.84;1.81
1751.08;1.81
1751.32;1.81
1751.56;1.81
1751.80;1.81
1752.04;1.81
1752.28;1.81
1752.52;1.81
1752.76;1.81
1753.01;1.81
1753.25;1.81
1753.49;1.81
1753.73;1.81
1753.97;1.81
1754.21;1.81
1754.45;1.81
1754.69;1.81
1754.93;1.81
1755.18;1.81
1755.42;1.81
1755.66;1.80
1755.90;1.80
1756.14;1.80
1756.38;1.80
1756.62;1.80
1756.86;1.80
1757.10;1.80
1757.34;1.80
1757.59;1.80
1757.83;1.80
1758.07;1.80
1758.31;1.80
1758.55;1.80
1758.79;1.80
1759.03;1.80
1759.27;1.80
1759.51;1.80
1759.76;1.80
1760.00;1.80
1760.24;1.80
1760.48;1.80
1760.72;1.80
1760.96;1.80
1761.20;1.80
1761.44;1.80
1761.68;1.80
1761.92;1.80
1762.17;1.80
1762.41;1.80
1762.65;1.80
1762.89;1.80
1763.13;1.80
1763.37;1.80
1763.61;1.80
1763.85;1.80
1764.09;1.80
1764.34;1.80
1764.58;1.80
1764.82;1.80
1765.06;1.80
1765.30;1.80
1765.54;1.80
1765.78;1.80
1766.02;1.80
1766.26;1.80
1766.51;1.80
1766.75;1.80
1766.99;1.80
1767.23;1.80
1767.47;1.80
1767.71;1.80
1767.95;1.80
1768.19;1.80
1768.43;1.80
1768.67;1.80
1768.92;1.80
1769.16;1.80
1769.40;1.80
1769.64;1.80
1769.88;1.80
1770.12;1.80
1770.36;1.80
1770.60;1.80
1770.84;1.79
1771.09;1.79
1771.33;1.79
1771.57;1.79
1771.81;1.79
1772.05;1.79
1772.29;1.79
1772.53;1.80
1772.77;1.80
1773.01;1.80
1773.25;1.80
1773.50;1.80
1773.74;1.80
1773.98;1.80
1774.22;1.80
1774.46;1.80
1774.70;1.80
1774.94;1.80
1775.18;1.80
1775.42;1.80
1775.67;1.80
1775.91;1.80
1776.15;1.80
1776.39;1.80
1776.63;1.80
1776.87;1.80
1777.11;1.80
1777.35;1.80
1777.59;1.80
1777.83;1.80
1778.08;1.80
1778.32;1.80
1778.56;1.80
1778.80;1.80
1779.04;1.80
1779.28;1.80
1779.52;1.80
1779.76;1.80
1780.00;1.80
1780.25;1.80
1780.49;1.80
1780.73;1.80
1780.97;1.80
1781.21;1.80
1781.45;1.80
1781.69;1.80
1781.93;1.80
1782.17;1.80
1782.42;1.80
1782.66;1.80
1782.90;1.80
1783.14;1.80
1783.38;1.80
1783.62;1.80
1783.86;1.80
1784.10;1.80
1784.34;1.80
1784.58;1.80
1784.83;1.80
1785.07;1.80
1785.31;1.80
1785.55;1.80
1785.79;1.80
1786.03;1.80
1786.27;1.80
1786.51;1.80
1786.75;1.80
1787.00;1.80
1787.24;1.80
1787.48;1.80
1787.72;1.80
1787.96;1.80
1788.20;1.80
1788.44;1.80
1788.68;1.80
1788.92;1.80
1789.16;1.79
1789.41;1.79
1789.65;1.79
1789.89;1.79
1790.13;1.79
1790.37;1.79
1790.61;1.79
1790.85;1.79
1791.09;1.79
1791.33;1.79
1791.58;1.79
1791.82;1.79
1792.06;1.79
1792.30;1.79
1792.54;1.79
1792.78;1.79
1793.02;1.79
1793.26;1.79
1793.50;1.79
1793.75;1.79
1793.99;1.79
1794.23;1.79
1794.47;1.79
1794.71;1.79
1794.95;1.79
1795.19;1.79
1795.43;1.79
1795.67;1.79
1795.91;1.79
1796.16;1.79
1796.40;1.79
1796.64;1.79
1796.88;1.79
1797.12;1.79
1797.36;1.79
1797.60;1.79
1797.84;1.79
1798.08;1.79
1798.33;1.79
1798.57;1.78
1798.81;1.78
1799.05;1.78
1799.29;1.78
1799.53;1.78
1799.77;1.78
1800.01;1.79
1800.25;1.79
1800.49;1.79
1800.74;1.79
1800.98;1.78
1801.22;1.78
1801.46;1.78
1801.70;1.78
1801.94;1.78
1802.18;1.78
1802.42;1.78
1802.66;1.78
1802.91;1.78
1803.15;1.78
1803.39;1.78
1803.63;1.78
1803.87;1.78
1804.11;1.78
1804.35;1.78
1804.59;1.78
1804.83;1.78
1805.08;1.78
1805.32;1.78
1805.56;1.78
1805.80;1.78
1806.04;1.78
1806.28;1.78
1806.52;1.78
1806.76;1.78
1807.00;1.78
1807.24;1.78
1807.49;1.78
1807.73;1.78
1807.97;1.78
1808.21;1.78
1808.45;1.78
1808.69;1.78
1808.93;1.78
1809.17;1.78
1809.41;1.78
1809.66;1.78
1809.90;1.78
1810.14;1.78
1810.38;1.78
1810.62;1.78
1810.86;1.78
1811.10;1.78
1811.34;1.78
1811.58;1.78
1811.82;1.78
1812.07;1.78
1812.31;1.78
1812.55;1.78
1812.79;1.78
1813.03;1.78
1813.27;1.78
1813.51;1.78
1813.75;1.78
1813.99;1.78
1814.24;1.78
1814.48;1.78
1814.72;1.78
1814.96;1.78
1815.20;1.78
1815.44;1.78
1815.68;1.78
1815.92;1.78
1816.16;1.78
1816.41;1.78
1816.65;1.78
1816.89;1.78
1817.13;1.78
1817.37;1.78
1817.61;1.78
1817.85;1.78
1818.09;1.78
1818.33;1.78
1818.57;1.78
1818.82;1.78
1819.06;1.78
1819.30;1.78
1819.54;1.78
1819.78;1.78
1820.02;1.78
1820.26;1.78
1820.50;1.78
1820.74;1.78
1820.99;1.78
1821.23;1.78
1821.47;1.78
1821.71;1.78
1821.95;1.78
1822.19;1.78
1822.43;1.77
1822.67;1.77
1822.91;1.77
1823.15;1.77
1823.40;1.77
1823.64;1.77
1823.88;1.77
1824.12;1.77
1824.36;1.77
1824.60;1.77
1824.84;1.77
1825.08;1.77
1825.32;1.77
1825.57;1.77
1825.81;1.77
1826.05;1.77
1826.29;1.77
1826.53;1.77
1826.77;1.77
1827.01;1.77
1827.25;1.77
1827.49;1.77
1827.73;1.77
1827.98;1.77
1828.22;1.77
1828.46;1.77
1828.70;1.77
1828.94;1.77
1829.18;1.77
1829.42;1.77
1829.66;1.77
1829.90;1.77
1830.15;1.77
1830.39;1.77
1830.63;1.77
1830.87;1.77
1831.11;1.77
1831.35;1.77
1831.59;1.77
1831.83;1.77
1832.07;1.77
1832.32;1.77
1832.56;1.77
1832.80;1.77
1833.04;1.77
1833.28;1.77
1833.52;1.77
1833.76;1.77
1834.00;1.77
1834.24;1.77
1834.48;1.77
1834.73;1.77
1834.97;1.77
1835.21;1.77
1835.45;1.77
1835.69;1.77
1835.93;1.77
1836.17;1.77
1836.41;1.77
1836.65;1.77
1836.90;1.77
1837.14;1.77
1837.38;1.77
1837.62;1.78
1837.86;1.78
1838.10;1.78
1838.34;1.78
1838.58;1.78
1838.82;1.78
1839.06;1.78
1839.31;1.78
1839.55;1.78
1839.79;1.78
1840.03;1.78
1840.27;1.78
1840.51;1.78
1840.75;1.78
1840.99;1.78
1841.23;1.78
1841.48;1.78
1841.72;1.78
1841.96;1.78
1842.20;1.77
1842.44;1.77
1842.68;1.77
1842.92;1.77
1843.16;1.77
1843.40;1.77
1843.65;1.77
1843.89;1.77
1844.13;1.77
1844.37;1.77
1844.61;1.77
1844.85;1.78
1845.09;1.78
1845.33;1.78
1845.57;1.78
1845.81;1.78
1846.06;1.78
1846.30;1.78
1846.54;1.78
1846.78;1.78
1847.02;1.78
1847.26;1.78
1847.50;1.78
1847.74;1.78
1847.98;1.78
1848.23;1.78
1848.47;1.78
1848.71;1.78
1848.95;1.78
1849.19;1.78
1849.43;1.78
1849.67;1.78
1849.91;1.78
1850.15;1.78
1850.39;1.78
1850.64;1.78
1850.88;1.78
1851.12;1.78
1851.36;1.78
1851.60;1.78
1851.84;1.78
1852.08;1.78
1852.32;1.78
1852.56;1.78
1852.81;1.78
1853.05;1.78
1853.29;1.78
1853.53;1.78
1853.77;1.78
1854.01;1.78
1854.25;1.78
1854.49;1.78
1854.73;1.78
1854.97;1.78
1855.22;1.78
1855.46;1.78
1855.70;1.78
1855.94;1.78
1856.18;1.78
1856.42;1.78
1856.66;1.78
1856.90;1.78
1857.14;1.78
1857.39;1.78
1857.63;1.78
1857.87;1.78
1858.11;1.78
1858.35;1.78
1858.59;1.78
1858.83;1.78
1859.07;1.78
1859.31;1.78
1859.56;1.78
1859.80;1.78
1860.04;1.78
1860.28;1.78
1860.52;1.78
1860.76;1.78
1861.00;1.78
1861.24;1.78
1861.48;1.78
1861.72;1.78
1861.97;1.78
1862.21;1.78
1862.45;1.78
1862.69;1.78
1862.93;1.78
1863.17;1.78
1863.41;1.78
1863.65;1.78
1863.89;1.78
1864.14;1.78
1864.38;1.78
1864.62;1.78
1864.86;1.78
1865.10;1.78
1865.34;1.78
1865.58;1.78
1865.82;1.78
1866.06;1.78
1866.30;1.78
1866.55;1.78
1866.79;1.77
1867.03;1.77
1867.27;1.77
1867.51;1.77
1867.75;1.77
1867.99;1.77
1868.23;1.77
1868.47;1.77
1868.72;1.78
1868.96;1.78
1869.20;1.78
1869.44;1.78
1869.68;1.78
1869.92;1.78
1870.16;1.78
1870.40;1.78
1870.64;1.78
1870.89;1.78
1871.13;1.78
1871.37;1.78
1871.61;1.78
1871.85;1.78
1872.09;1.78
1872.33;1.78
1872.57;1.78
1872.81;1.78
1873.05;1.78
1873.30;1.78
1873.54;1.78
1873.78;1.78
1874.02;1.78
1874.26;1.78
1874.50;1.78
1874.74;1.78
1874.98;1.78
1875.22;1.78
1875.47;1.78
1875.71;1.78
1875.95;1.79
1876.19;1.79
1876.43;1.79
1876.67;1.79
1876.91;1.79
1877.15;1.79
1877.39;1.79
1877.63;1.79
1877.88;1.79
1878.12;1.79
1878.36;1.79
1878.60;1.79
1878.84;1.79
1879.08;1.79
1879.32;1.79
1879.56;1.79
1879.80;1.80
1880.05;1.80
1880.29;1.80
1880.53;1.80
1880.77;1.80
1881.01;1.80
1881.25;1.80
1881.49;1.80
1881.73;1.80
1881.97;1.80
1882.21;1.80
1882.46;1.80
1882.70;1.81
1882.94;1.81
1883.18;1.81
1883.42;1.81
1883.66;1.81
1883.90;1.81
1884.14;1.81
1884.38;1.81
1884.63;1.81
1884.87;1.81
1885.11;1.81
1885.35;1.81
1885.59;1.81
1885.83;1.81
1886.07;1.81
1886.31;1.81
1886.55;1.81
1886.80;1.81
1887.04;1.81
1887.28;1.81
1887.52;1.81
1887.76;1.81
1888.00;1.81
1888.24;1.81
1888.48;1.81
1888.72;1.80
1888.96;1.80
1889.21;1.80
1889.45;1.81
1889.69;1.81
1889.93;1.81
1890.17;1.81
1890.41;1.81
1890.65;1.81
1890.89;1.81
1891.13;1.81
1891.38;1.81
1891.62;1.81
1891.86;1.81
1892.10;1.81
1892.34;1.81
1892.58;1.81
1892.82;1.81
1893.06;1.81
1893.30;1.81
1893.54;1.81
1893.79;1.81
1894.03;1.81
1894.27;1.81
1894.51;1.81
1894.75;1.80
1894.99;1.80
1895.23;1.80
1895.47;1.80
1895.71;1.80
1895.96;1.80
1896.20;1.80
1896.44;1.80
1896.68;1.80
1896.92;1.80
1897.16;1.80
1897.40;1.80
1897.64;1.80
1897.88;1.80
1898.13;1.80
1898.37;1.80
1898.61;1.80
1898.85;1.80
1899.09;1.79
1899.33;1.79
1899.57;1.79
1899.81;1.79
1900.05;1.79
1900.29;1.79
1900.54;1.79
1900.78;1.79
1901.02;1.79
1901.26;1.79
1901.50;1.79
1901.74;1.79
1901.98;1.79
1902.22;1.79
1902.46;1.79
1902.71;1.78
1902.95;1.78
1903.19;1.78
1903.43;1.78
1903.67;1.78
1903.91;1.78
1904.15;1.78
1904.39;1.78
1904.63;1.78
1904.87;1.78
1905.12;1.78
1905.36;1.78
1905.60;1.78
1905.84;1.78
1906.08;1.78
1906.32;1.78
1906.56;1.78
1906.80;1.78
1907.04;1.78
1907.29;1.78
1907.53;1.78
1907.77;1.78
1908.01;1.78
1908.25;1.78
1908.49;1.78
1908.73;1.78
1908.97;1.78
1909.21;1.78
1909.46;1.78
1909.70;1.78
1909.94;1.78
1910.18;1.78
1910.42;1.78
1910.66;1.78
1910.90;1.78
1911.14;1.78
1911.38;1.78
1911.62;1.78
1911.87;1.78
1912.11;1.78
1912.35;1.78
1912.59;1.78
1912.83;1.78
1913.07;1.78
1913.31;1.78
1913.55;1.78
1913.79;1.78
1914.04;1.78
1914.28;1.78
1914.52;1.78
1914.76;1.78
1915.00;1.78
1915.24;1.78
1915.48;1.78
1915.72;1.78
1915.96;1.78
1916.20;1.78
1916.45;1.78
1916.69;1.78
1916.93;1.78
1917.17;1.78
1917.41;1.78
1917.65;1.78
1917.89;1.78
1918.13;1.78
1918.37;1.78
1918.62;1.78
1918.86;1.78
1919.10;1.78
1919.34;1.78
1919.58;1.78
1919.82;1.78
1920.06;1.78
1920.30;1.78
1920.54;1.78
1920.78;1.78
1921.03;1.78
1921.27;1.78
1921.51;1.78
1921.75;1.78
1921.99;1.78
1922.23;1.78
1922.47;1.78
1922.71;1.78
1922.95;1.78
1923.20;1.78
1923.44;1.78
1923.68;1.78
1923.92;1.78
1924.16;1.78
1924.40;1.78
1924.64;1.78
1924.88;1.78
1925.12;1.78
1925.37;1.78
1925.61;1.78
1925.85;1.78
1926.09;1.78
1926.33;1.78
1926.57;1.78
1926.81;1.78
1927.05;1.78
1927.29;1.78
1927.53;1.78
1927.78;1.78
1928.02;1.78
1928.26;1.78
1928.50;1.78
1928.74;1.78
1928.98;1.78
1929.22;1.78
1929.46;1.78
1929.70;1.78
1929.95;1.78
1930.19;1.78
1930.43;1.78
1930.67;1.78
1930.91;1.78
1931.15;1.78
1931.39;1.78
1931.63;1.78
1931.87;1.78
1932.11;1.78
1932.36;1.78
1932.60;1.78
1932.84;1.78
1933.08;1.78
1933.32;1.78
1933.56;1.78
1933.80;1.78
1934.04;1.78
1934.28;1.78
1934.53;1.78
1934.77;1.78
1935.01;1.78
1935.25;1.78
1935.49;1.78
1935.73;1.78
1935.97;1.78
1936.21;1.78
1936.45;1.78
1936.70;1.78
1936.94;1.78
1937.18;1.78
1937.42;1.78
1937.66;1.78
1937.90;1.78
1938.14;1.78
1938.38;1.78
1938.62;1.78
1938.86;1.78
1939.11;1.78
1939.35;1.78
1939.59;1.78
1939.83;1.78
1940.07;1.78
1940.31;1.78
1940.55;1.78
1940.79;1.78
1941.03;1.78
1941.28;1.78
1941.52;1.78
1941.76;1.78
1942.00;1.78
1942.24;1.78
1942.48;1.78
1942.72;1.78
1942.96;1.78
1943.20;1.78
1943.44;1.78
1943.69;1.78
1943.93;1.78
1944.17;1.79
1944.41;1.79
1944.65;1.79
1944.89;1.79
1945.13;1.79
1945.37;1.79
1945.61;1.79
1945.86;1.79
1946.10;1.79
1946.34;1.79
1946.58;1.79
1946.82;1.79
1947.06;1.79
1947.30;1.79
1947.54;1.79
1947.78;1.79
1948.03;1.79
1948.27;1.79
1948.51;1.79
1948.75;1.79
1948.99;1.79
1949.23;1.79
1949.47;1.79
1949.71;1.79
1949.95;1.79
1950.19;1.79
1950.44;1.79
1950.68;1.79
1950.92;1.80
1951.16;1.80
1951.40;1.80
1951.64;1.80
1951.88;1.80
1952.12;1.80
1952.36;1.80
1952.61;1.80
1952.85;1.80
1953.09;1.80
1953.33;1.80
1953.57;1.80
1953.81;1.80
1954.05;1.80
1954.29;1.80
1954.53;1.80
1954.77;1.80
1955.02;1.80
1955.26;1.80
1955.50;1.80
1955.74;1.80
1955.98;1.80
1956.22;1.80
1956.46;1.80
1956.70;1.80
1956.94;1.80
1957.19;1.80
1957.43;1.80
1957.67;1.80
1957.91;1.80
1958.15;1.80
1958.39;1.80
1958.63;1.80
1958.87;1.80
1959.11;1.80
1959.35;1.79
1959.60;1.79
1959.84;1.79
1960.08;1.79
1960.32;1.79
1960.56;1.79
1960.80;1.79
1961.04;1.79
1961.28;1.79
1961.52;1.79
1961.77;1.79
1962.01;1.79
1962.25;1.79
1962.49;1.79
1962.73;1.79
1962.97;1.79
1963.21;1.79
1963.45;1.79
1963.69;1.79
1963.94;1.79
1964.18;1.79
1964.42;1.79
1964.66;1.79
1964.90;1.79
1965.14;1.79
1965.38;1.79
1965.62;1.79
1965.86;1.79
1966.10;1.79
1966.35;1.79
1966.59;1.79
1966.83;1.79
1967.07;1.79
1967.31;1.80
1967.55;1.80
1967.79;1.80
1968.03;1.80
1968.27;1.80
1968.52;1.80
1968.76;1.80
1969.00;1.80
1969.24;1.80
1969.48;1.80
1969.72;1.80
1969.96;1.80
1970.20;1.80
1970.44;1.80
1970.68;1.80
1970.93;1.80
1971.17;1.80
1971.41;1.80
1971.65;1.80
1971.89;1.80
1972.13;1.80
1972.37;1.80
1972.61;1.80
1972.85;1.80
1973.10;1.80
1973.34;1.80
1973.58;1.80
1973.82;1.80
1974.06;1.80
1974.30;1.80
1974.54;1.80
1974.78;1.80
1975.02;1.80
1975.27;1.80
1975.51;1.80
1975.75;1.80
1975.99;1.80
1976.23;1.80
1976.47;1.80
1976.71;1.80
1976.95;1.80
1977.19;1.80
1977.43;1.80
1977.68;1.80
1977.92;1.80
1978.16;1.80
1978.40;1.80
1978.64;1.80
1978.88;1.80
1979.12;1.80
1979.36;1.80
1979.60;1.80
1979.85;1.80
1980.09;1.80
1980.33;1.80
1980.57;1.80
1980.81;1.80
1981.05;1.80
1981.29;1.80
1981.53;1.80
1981.77;1.80
1982.01;1.81
1982.26;1.81
1982.50;1.81
1982.74;1.81
1982.98;1.81
1983.22;1.81
1983.46;1.81
1983.70;1.81
1983.94;1.81
1984.18;1.81
1984.43;1.81
1984.67;1.81
1984.91;1.81
1985.15;1.81
1985.39;1.81
1985.63;1.81
1985.87;1.81
1986.11;1.81
1986.35;1.81
1986.59;1.81
1986.84;1.81
1987.08;1.81
1987.32;1.81
1987.56;1.81
1987.80;1.81
1988.04;1.81
1988.28;1.81
1988.52;1.81
1988.76;1.81
1989.01;1.81
1989.25;1.81
1989.49;1.81
1989.73;1.81
1989.97;1.81
1990.21;1.81
1990.45;1.81
1990.69;1.81
1990.93;1.82
1991.18;1.82
1991.42;1.82
1991.66;1.82
1991.90;1.82
1992.14;1.82
1992.38;1.82
1992.62;1.82
1992.86;1.82
1993.10;1.82
1993.34;1.82
1993.59;1.82
1993.83;1.82
1994.07;1.82
1994.31;1.82
1994.55;1.82
1994.79;1.82
1995.03;1.82
1995.27;1.82
1995.51;1.82
1995.76;1.82
1996.00;1.82
1996.24;1.82
1996.48;1.82
1996.72;1.82
1996.96;1.83
1997.20;1.83
1997.44;1.83
1997.68;1.83
1997.92;1.83
1998.17;1.83
1998.41;1.83
1998.65;1.83
1998.89;1.83
1999.13;1.83
1999.37;1.83
1999.61;1.83
1999.85;1.83
2000.09;1.83
2000.34;1.83
2000.58;1.83
2000.82;1.83
2001.06;1.83
2001.30;1.83
2001.54;1.83
2001.78;1.84
2002.02;1.84
2002.26;1.84
2002.51;1.84
2002.75;1.84
2002.99;1.84
2003.23;1.84
2003.47;1.84
2003.71;1.84
2003.95;1.84
2004.19;1.84
2004.43;1.84
2004.67;1.84
2004.92;1.84
2005.16;1.84
2005.40;1.84
2005.64;1.84
2005.88;1.84
2006.12;1.84
2006.36;1.84
2006.60;1.84
2006.84;1.84
2007.09;1.84
2007.33;1.84
2007.57;1.84
2007.81;1.84
2008.05;1.84
2008.29;1.84
2008.53;1.84
2008.77;1.84
2009.01;1.84
2009.25;1.84
2009.50;1.84
2009.74;1.84
2009.98;1.84
2010.22;1.84
2010.46;1.84
2010.70;1.84
2010.94;1.84
2011.18;1.84
2011.42;1.84
2011.67;1.84
2011.91;1.84
2012.15;1.84
2012.39;1.84
2012.63;1.84
2012.87;1.84
2013.11;1.84
2013.35;1.84
2013.59;1.84
2013.83;1.84
2014.08;1.84
2014.32;1.84
2014.56;1.84
2014.80;1.84
2015.04;1.84
2015.28;1.84
2015.52;1.84
2015.76;1.84
2016.00;1.84
2016.25;1.84
2016.49;1.84
2016.73;1.84
2016.97;1.84
2017.21;1.84
2017.45;1.84
2017.69;1.84
2017.93;1.84
2018.17;1.84
2018.42;1.84
2018.66;1.84
2018.90;1.84
2019.14;1.84
2019.38;1.84
2019.62;1.84
2019.86;1.84
2020.10;1.84
2020.34;1.84
2020.58;1.84
2020.83;1.84
2021.07;1.84
2021.31;1.84
2021.55;1.84
2021.79;1.84
2022.03;1.84
2022.27;1.84
2022.51;1.84
2022.75;1.84
2023.00;1.84
2023.24;1.84
2023.48;1.84
2023.72;1.84
2023.96;1.84
2024.20;1.84
2024.44;1.84
2024.68;1.84
2024.92;1.84
2025.16;1.84
2025.41;1.84
2025.65;1.84
2025.89;1.84
2026.13;1.84
2026.37;1.84
2026.61;1.84
2026.85;1.84
2027.09;1.84
2027.33;1.84
2027.58;1.84
2027.82;1.84
2028.06;1.84
2028.30;1.84
2028.54;1.84
2028.78;1.84
2029.02;1.84
2029.26;1.84
2029.50;1.84
2029.75;1.84
2029.99;1.84
2030.23;1.84
2030.47;1.84
2030.71;1.84
2030.95;1.84
2031.19;1.84
2031.43;1.84
2031.67;1.84
2031.91;1.84
2032.16;1.84
2032.40;1.84
2032.64;1.84
2032.88;1.84
2033.12;1.84
2033.36;1.84
2033.60;1.84
2033.84;1.84
2034.08;1.84
2034.33;1.84
2034.57;1.84
2034.81;1.84
2035.05;1.84
2035.29;1.84
2035.53;1.84
2035.77;1.84
2036.01;1.84
2036.25;1.84
2036.49;1.84
2036.74;1.84
2036.98;1.84
2037.22;1.84
2037.46;1.84
2037.70;1.84
2037.94;1.84
2038.18;1.84
2038.42;1.84
2038.66;1.84
2038.91;1.84
2039.15;1.84
2039.39;1.84
2039.63;1.84
2039.87;1.84
2040.11;1.84
2040.35;1.84
2040.59;1.84
2040.83;1.84
2041.08;1.84
2041.32;1.84
2041.56;1.84
2041.80;1.84
2042.04;1.84
2042.28;1.84
2042.52;1.84
2042.76;1.84
2043.00;1.84
2043.24;1.84
2043.49;1.84
2043.73;1.84
2043.97;1.84
2044.21;1.84
2044.45;1.84
2044.69;1.84
2044.93;1.84
2045.17;1.84
2045.41;1.84
2045.66;1.84
2045.90;1.84
2046.14;1.84
2046.38;1.84
2046.62;1.84
2046.86;1.84
2047.10;1.84
2047.34;1.84
2047.58;1.85
2047.82;1.85
2048.07;1.85
2048.31;1.85
2048.55;1.85
2048.79;1.85
2049.03;1.85
2049.27;1.85
2049.51;1.85
2049.75;1.85
2049.99;1.85
2050.24;1.85
2050.48;1.85
2050.72;1.85
2050.96;1.85
2051.20;1.85
2051.44;1.85
2051.68;1.85
2051.92;1.85
2052.16;1.85
2052.41;1.85
2052.65;1.85
2052.89;1.85
2053.13;1.85
2053.37;1.85
2053.61;1.85
2053.85;1.86
2054.09;1.86
2054.33;1.86
2054.57;1.86
2054.82;1.86
2055.06;1.86
2055.30;1.86
2055.54;1.86
2055.78;1.86
2056.02;1.86
2056.26;1.86
2056.50;1.86
2056.74;1.86
2056.99;1.86
2057.23;1.86
2057.47;1.86
2057.71;1.86
2057.95;1.86
2058.19;1.86
2058.43;1.86
2058.67;1.86
2058.91;1.86
2059.15;1.86
2059.40;1.86
2059.64;1.86
2059.88;1.86
2060.12;1.86
2060.36;1.86
2060.60;1.86
2060.84;1.86
2061.08;1.86
2061.32;1.87
2061.57;1.87
2061.81;1.87
2062.05;1.87
2062.29;1.87
2062.53;1.87
2062.77;1.87
2063.01;1.87
2063.25;1.87
2063.49;1.87
2063.73;1.87
2063.98;1.86
2064.22;1.86
2064.46;1.86
2064.70;1.86
2064.94;1.86
2065.18;1.86
2065.42;1.86
2065.66;1.86
2065.90;1.86
2066.15;1.86
2066.39;1.86
2066.63;1.86
2066.87;1.86
2067.11;1.86
2067.35;1.86
2067.59;1.86
2067.83;1.86
2068.07;1.86
2068.32;1.86
2068.56;1.86
2068.80;1.86
2069.04;1.86
2069.28;1.86
2069.52;1.86
2069.76;1.86
2070.00;1.86
2070.24;1.86
2070.48;1.86
2070.73;1.85
2070.97;1.85
2071.21;1.85
2071.45;1.85
2071.69;1.85
2071.93;1.85
2072.17;1.85
2072.41;1.85
2072.65;1.85
2072.90;1.85
2073.14;1.85
2073.38;1.85
2073.62;1.85
2073.86;1.85
2074.10;1.85
2074.34;1.85
2074.58;1.85
2074.82;1.85
2075.06;1.85
2075.31;1.85
2075.55;1.85
2075.79;1.85
2076.03;1.85
2076.27;1.85
2076.51;1.85
2076.75;1.85
2076.99;1.85
2077.23;1.85
2077.48;1.85
2077.72;1.85
2077.96;1.85
2078.20;1.85
2078.44;1.85
2078.68;1.85
2078.92;1.84
2079.16;1.84
2079.40;1.84
2079.65;1.84
2079.89;1.84
2080.13;1.84
2080.37;1.84
2080.61;1.84
2080.85;1.84
2081.09;1.84
2081.33;1.84
2081.57;1.84
2081.81;1.84
2082.06;1.84
2082.30;1.84
2082.54;1.84
2082.78;1.84
2083.02;1.84
2083.26;1.84
2083.50;1.84
2083.74;1.84
2083.98;1.84
2084.23;1.85
2084.47;1.85
2084.71;1.85
2084.95;1.84
2085.19;1.84
2085.43;1.84
2085.67;1.84
2085.91;1.84
2086.15;1.84
2086.39;1.84
2086.64;1.84
2086.88;1.84
2087.12;1.84
2087.36;1.84
2087.60;1.84
2087.84;1.84
2088.08;1.84
2088.32;1.84
2088.56;1.84
2088.81;1.84
2089.05;1.84
2089.29;1.84
2089.53;1.84
2089.77;1.85
2090.01;1.85
2090.25;1.85
2090.49;1.85
2090.73;1.85
2090.97;1.85
2091.22;1.85
2091.46;1.85
2091.70;1.85
2091.94;1.85
2092.18;1.85
2092.42;1.85
2092.66;1.85
2092.90;1.85
2093.14;1.85
2093.39;1.85
2093.63;1.85
2093.87;1.85
2094.11;1.85
2094.35;1.85
2094.59;1.85
2094.83;1.85
2095.07;1.85
2095.31;1.85
2095.56;1.85
2095.80;1.85
2096.04;1.85
2096.28;1.85
2096.52;1.85
2096.76;1.85
2097.00;1.85
2097.24;1.85
2097.48;1.85
2097.72;1.85
2097.97;1.85
2098.21;1.85
2098.45;1.85
2098.69;1.85
2098.93;1.85
2099.17;1.85
2099.41;1.85
2099.65;1.85
2099.89;1.85
2100.14;1.85
2100.38;1.85
2100.62;1.85
2100.86;1.85
2101.10;1.85
2101.34;1.85
2101.58;1.85
2101.82;1.85
2102.06;1.85
2102.30;1.85
2102.55;1.85
2102.79;1.85
2103.03;1.85
2103.27;1.85
2103.51;1.85
2103.75;1.85
2103.99;1.85
2104.23;1.85
2104.47;1.85
2104.72;1.85
2104.96;1.85
2105.20;1.85
2105.44;1.85
2105.68;1.85
2105.92;1.85
2106.16;1.85
2106.40;1.85
2106.64;1.85
2106.89;1.85
2107.13;1.85
2107.37;1.85
2107.61;1.85
2107.85;1.85
2108.09;1.85
2108.33;1.85
2108.57;1.85
2108.81;1.85
2109.05;1.85
2109.30;1.85
2109.54;1.85
2109.78;1.85
2110.02;1.85
2110.26;1.85
2110.50;1.85
2110.74;1.85
2110.98;1.85
2111.22;1.85
2111.47;1.85
2111.71;1.85
2111.95;1.85
2112.19;1.85
2112.43;1.85
2112.67;1.85
2112.91;1.85
2113.15;1.85
2113.39;1.85
2113.63;1.85
2113.88;1.85
2114.12;1.85
2114.36;1.85
2114.60;1.85
2114.84;1.85
2115.08;1.85
2115.32;1.85
2115.56;1.85
2115.80;1.85
2116.05;1.85
2116.29;1.85
2116.53;1.85
2116.77;1.85
2117.01;1.85
2117.25;1.85
2117.49;1.85
2117.73;1.85
2117.97;1.85
2118.22;1.85
2118.46;1.85
2118.70;1.85
2118.94;1.85
2119.18;1.85
2119.42;1.85
2119.66;1.85
2119.90;1.85
2120.14;1.85
2120.38;1.85
2120.63;1.85
2120.87;1.85
2121.11;1.85
2121.35;1.85
2121.59;1.85
2121.83;1.85
2122.07;1.85
2122.31;1.85
2122.55;1.85
2122.80;1.85
2123.04;1.85
2123.28;1.85
2123.52;1.85
2123.76;1.85
2124.00;1.85
2124.24;1.85
2124.48;1.85
2124.72;1.85
2124.96;1.85
2125.21;1.85
2125.45;1.85
2125.69;1.85
2125.93;1.85
2126.17;1.85
2126.41;1.85
2126.65;1.85
2126.89;1.85
2127.13;1.85
2127.38;1.85
2127.62;1.85
2127.86;1.85
2128.10;1.85
2128.34;1.85
2128.58;1.85
2128.82;1.85
2129.06;1.85
2129.30;1.86
2129.54;1.86
2129.79;1.86
2130.03;1.86
2130.27;1.86
2130.51;1.86
2130.75;1.86
2130.99;1.86
2131.23;1.86
2131.47;1.86
2131.71;1.86
2131.96;1.86
2132.20;1.86
2132.44;1.86
2132.68;1.86
2132.92;1.86
2133.16;1.86
2133.40;1.86
2133.64;1.86
2133.88;1.86
2134.13;1.86
2134.37;1.86
2134.61;1.86
2134.85;1.86
2135.09;1.86
2135.33;1.86
2135.57;1.86
2135.81;1.86
2136.05;1.86
2136.29;1.86
2136.54;1.86
2136.78;1.86
2137.02;1.86
2137.26;1.86
2137.50;1.86
2137.74;1.86
2137.98;1.86
2138.22;1.87
2138.46;1.87
2138.71;1.87
2138.95;1.87
2139.19;1.87
2139.43;1.87
2139.67;1.87
2139.91;1.87
2140.15;1.87
2140.39;1.87
2140.63;1.87
2140.87;1.87
2141.12;1.87
2141.36;1.87
2141.60;1.87
2141.84;1.87
2142.08;1.87
2142.32;1.87
2142.56;1.87
2142.80;1.87
2143.04;1.87
2143.29;1.87
2143.53;1.87
2143.77;1.87
2144.01;1.87
2144.25;1.87
2144.49;1.87
2144.73;1.87
2144.97;1.87
2145.21;1.87
2145.46;1.86
2145.70;1.86
2145.94;1.86
2146.18;1.86
2146.42;1.86
2146.66;1.86
2146.90;1.86
2147.14;1.86
2147.38;1.86
2147.62;1.86
2147.87;1.86
2148.11;1.86
2148.35;1.86
2148.59;1.86
2148.83;1.86
2149.07;1.86
2149.31;1.86
2149.55;1.86
2149.79;1.86
2150.04;1.86
2150.28;1.86
2150.52;1.86
2150.76;1.86
2151.00;1.86
2151.24;1.86
2151.48;1.86
2151.72;1.86
2151.96;1.86
2152.20;1.86
2152.45;1.86
2152.69;1.86
2152.93;1.86
2153.17;1.86
2153.41;1.86
2153.65;1.86
2153.89;1.86
2154.13;1.86
2154.37;1.86
2154.62;1.86
2154.86;1.86
2155.10;1.86
2155.34;1.86
2155.58;1.86
2155.82;1.86
2156.06;1.86
2156.30;1.86
2156.54;1.86
2156.78;1.86
2157.03;1.86
2157.27;1.86
2157.51;1.86
2157.75;1.86
2157.99;1.86
2158.23;1.86
2158.47;1.86
2158.71;1.86
2158.95;1.86
2159.20;1.86
2159.44;1.86
2159.68;1.86
2159.92;1.86
2160.16;1.86
2160.40;1.86
2160.64;1.86
2160.88;1.86
2161.12;1.86
2161.37;1.86
2161.61;1.86
2161.85;1.86
2162.09;1.86
2162.33;1.86
2162.57;1.86
2162.81;1.86
2163.05;1.86
2163.29;1.86
2163.53;1.86
2163.78;1.86
2164.02;1.86
2164.26;1.86
2164.50;1.86
2164.74;1.86
2164.98;1.86
2165.22;1.86
2165.46;1.86
2165.70;1.86
2165.95;1.86
2166.19;1.86
2166.43;1.86
2166.67;1.86
2166.91;1.86
2167.15;1.86
2167.39;1.86
2167.63;1.86
2167.87;1.86
2168.12;1.86
2168.36;1.86
2168.60;1.86
2168.84;1.86
2169.08;1.86
2169.32;1.86
2169.56;1.86
2169.80;1.86
2170.04;1.86
2170.28;1.86
2170.53;1.86
2170.77;1.86
2171.01;1.86
2171.25;1.86
2171.49;1.86
2171.73;1.86
2171.97;1.86
2172.21;1.86
2172.45;1.86
2172.70;1.86
2172.94;1.86
2173.18;1.86
2173.42;1.86
2173.66;1.86
2173.90;1.86
2174.14;1.86
2174.38;1.86
2174.62;1.86
2174.86;1.86
2175.11;1.86
2175.35;1.86
2175.59;1.86
2175.83;1.86
2176.07;1.86
2176.31;1.86
2176.55;1.86
2176.79;1.86
2177.03;1.86
2177.28;1.86
2177.52;1.86
2177.76;1.86
2178.00;1.86
2178.24;1.86
2178.48;1.86
2178.72;1.86
2178.96;1.86
2179.20;1.86
2179.44;1.86
2179.69;1.86
2179.93;1.86
2180.17;1.86
2180.41;1.86
2180.65;1.86
2180.89;1.87
2181.13;1.87
2181.37;1.87
2181.61;1.87
2181.86;1.87
2182.10;1.87
2182.34;1.87
2182.58;1.87
2182.82;1.87
2183.06;1.87
2183.30;1.87
2183.54;1.87
2183.78;1.87
2184.02;1.87
2184.27;1.87
2184.51;1.87
2184.75;1.87
2184.99;1.87
2185.23;1.87
2185.47;1.87
2185.71;1.87
2185.95;1.87
2186.19;1.87
2186.44;1.87
2186.68;1.87
2186.92;1.87
2187.16;1.87
2187.40;1.87
2187.64;1.87
2187.88;1.87
2188.12;1.87
2188.36;1.87
2188.61;1.87
2188.85;1.87
2189.09;1.87
2189.33;1.87
2189.57;1.87
2189.81;1.87
2190.05;1.87
2190.29;1.87
2190.53;1.87
2190.77;1.87
2191.02;1.87
2191.26;1.87
2191.50;1.87
2191.74;1.87
2191.98;1.87
2192.22;1.87
2192.46;1.87
2192.70;1.87
2192.94;1.87
2193.19;1.87
2193.43;1.87
2193.67;1.87
2193.91;1.87
2194.15;1.87
2194.39;1.87
2194.63;1.87
2194.87;1.87
2195.11;1.87
2195.35;1.87
2195.60;1.87
2195.84;1.87
2196.08;1.87
2196.32;1.87
2196.56;1.87
2196.80;1.87
2197.04;1.87
2197.28;1.88
2197.52;1.88
2197.77;1.88
2198.01;1.88
2198.25;1.88
2198.49;1.88
2198.73;1.88
2198.97;1.88
2199.21;1.88
2199.45;1.88
2199.69;1.88
2199.94;1.88
2200.18;1.88
2200.42;1.88
2200.66;1.88
2200.90;1.88
2201.14;1.88
2201.38;1.88
2201.62;1.88
2201.86;1.88
2202.10;1.88
2202.35;1.88
2202.59;1.88
2202.83;1.88
2203.07;1.88
2203.31;1.88
2203.55;1.88
2203.79;1.88
2204.03;1.88
2204.27;1.88
2204.52;1.88
2204.76;1.88
2205.00;1.88
2205.24;1.89
2205.48;1.89
2205.72;1.89
2205.96;1.89
2206.20;1.89
2206.44;1.89
2206.68;1.89
2206.93;1.89
2207.17;1.89
2207.41;1.89
2207.65;1.89
2207.89;1.89
2208.13;1.89
2208.37;1.89
2208.61;1.89
2208.85;1.89
2209.10;1.89
2209.34;1.89
2209.58;1.89
2209.82;1.89
2210.06;1.89
2210.30;1.89
2210.54;1.89
2210.78;1.89
2211.02;1.89
2211.27;1.89
2211.51;1.89
2211.75;1.89
2211.99;1.89
2212.23;1.89
2212.47;1.89
2212.71;1.89
2212.95;1.89
2213.19;1.89
2213.43;1.89
2213.68;1.89
2213.92;1.89
2214.16;1.89
2214.40;1.89
2214.64;1.89
2214.88;1.89
2215.12;1.89
2215.36;1.89
2215.60;1.89
2215.85;1.90
2216.09;1.90
2216.33;1.90
2216.57;1.90
2216.81;1.90
2217.05;1.90
2217.29;1.90
2217.53;1.90
2217.77;1.90
2218.01;1.90
2218.26;1.90
2218.50;1.90
2218.74;1.90
2218.98;1.90
2219.22;1.90
2219.46;1.90
2219.70;1.90
2219.94;1.90
2220.18;1.90
2220.43;1.90
2220.67;1.90
2220.91;1.90
2221.15;1.90
2221.39;1.90
2221.63;1.90
2221.87;1.90
2222.11;1.90
2222.35;1.90
2222.59;1.90
2222.84;1.90
2223.08;1.90
2223.32;1.90
2223.56;1.90
2223.80;1.90
2224.04;1.90
2224.28;1.90
2224.52;1.90
2224.76;1.90
2225.01;1.90
2225.25;1.90
2225.49;1.90
2225.73;1.90
2225.97;1.90
2226.21;1.90
2226.45;1.90
2226.69;1.90
2226.93;1.90
2227.18;1.90
2227.42;1.90
2227.66;1.90
2227.90;1.90
2228.14;1.90
2228.38;1.90
2228.62;1.90
2228.86;1.90
2229.10;1.90
2229.34;1.90
2229.59;1.90
2229.83;1.90
2230.07;1.90
2230.31;1.90
2230.55;1.90
2230.79;1.90
2231.03;1.90
2231.27;1.90
2231.51;1.90
2231.76;1.90
2232.00;1.90
2232.24;1.90
2232.48;1.90
2232.72;1.91
2232.96;1.91
2233.20;1.91
2233.44;1.91
2233.68;1.91
2233.92;1.91
2234.17;1.91
2234.41;1.91
2234.65;1.91
2234.89;1.91
2235.13;1.91
2235.37;1.91
2235.61;1.91
2235.85;1.91
2236.09;1.91
2236.34;1.91
2236.58;1.91
2236.82;1.91
2237.06;1.91
2237.30;1.91
2237.54;1.91
2237.78;1.91
2238.02;1.91
2238.26;1.91
2238.51;1.91
2238.75;1.91
2238.99;1.91
2239.23;1.91
2239.47;1.91
2239.71;1.91
2239.95;1.91
2240.19;1.91
2240.43;1.91
2240.67;1.91
2240.92;1.91
2241.16;1.91
2241.40;1.91
2241.64;1.91
2241.88;1.91
2242.12;1.91
2242.36;1.91
2242.60;1.91
2242.84;1.91
2243.09;1.91
2243.33;1.91
2243.57;1.91
2243.81;1.91
2244.05;1.91
2244.29;1.91
2244.53;1.91
2244.77;1.91
2245.01;1.91
2245.25;1.91
2245.50;1.91
2245.74;1.91
2245.98;1.91
2246.22;1.91
2246.46;1.91
2246.70;1.91
2246.94;1.91
2247.18;1.91
2247.42;1.91
2247.67;1.91
2247.91;1.91
2248.15;1.91
2248.39;1.91
2248.63;1.91
2248.87;1.91
2249.11;1.91
2249.35;1.91
2249.59;1.91
2249.83;1.91
2250.08;1.91
2250.32;1.91
2250.56;1.91
2250.80;1.92
2251.04;1.92
2251.28;1.92
2251.52;1.92
2251.76;1.92
2252.00;1.92
2252.25;1.92
2252.49;1.92
2252.73;1.92
2252.97;1.92
2253.21;1.92
2253.45;1.92
2253.69;1.92
2253.93;1.92
2254.17;1.92
2254.42;1.92
2254.66;1.92
2254.90;1.92
2255.14;1.92
2255.38;1.92
2255.62;1.92
2255.86;1.92
2256.10;1.92
2256.34;1.92
2256.58;1.92
2256.83;1.92
2257.07;1.92
2257.31;1.92
2257.55;1.92
2257.79;1.92
2258.03;1.92
2258.27;1.92
2258.51;1.92
2258.75;1.92
2259.00;1.92
2259.24;1.92
2259.48;1.92
2259.72;1.92
2259.96;1.92
2260.20;1.92
2260.44;1.92
2260.68;1.92
2260.92;1.92
2261.17;1.92
2261.41;1.92
2261.65;1.92
2261.89;1.92
2262.13;1.92
2262.37;1.92
2262.61;1.92
2262.85;1.92
2263.09;1.93
2263.33;1.93
2263.58;1.93
2263.82;1.93
2264.06;1.93
2264.30;1.93
2264.54;1.93
2264.78;1.93
2265.02;1.93
2265.26;1.93
2265.50;1.93
2265.75;1.93
2265.99;1.93
2266.23;1.93
2266.47;1.93
2266.71;1.93
2266.95;1.93
2267.19;1.93
2267.43;1.93
2267.67;1.93
2267.91;1.93
2268.16;1.93
2268.40;1.93
2268.64;1.93
2268.88;1.93
2269.12;1.93
2269.36;1.93
2269.60;1.93
2269.84;1.93
2270.08;1.93
2270.33;1.93
2270.57;1.93
2270.81;1.93
2271.05;1.93
2271.29;1.93
2271.53;1.93
2271.77;1.93
2272.01;1.94
2272.25;1.94
2272.49;1.94
2272.74;1.94
2272.98;1.94
2273.22;1.94
2273.46;1.94
2273.70;1.94
2273.94;1.94
2274.18;1.94
2274.42;1.94
2274.66;1.94
2274.91;1.94
2275.15;1.94
2275.39;1.94
2275.63;1.94
2275.87;1.94
2276.11;1.94
2276.35;1.94
2276.59;1.94
2276.83;1.94
2277.07;1.94
2277.32;1.94
2277.56;1.94
2277.80;1.94
2278.04;1.94
2278.28;1.94
2278.52;1.94
2278.76;1.94
2279.00;1.94
2279.24;1.94
2279.49;1.94
2279.73;1.94
2279.97;1.94
2280.21;1.94
2280.45;1.94
2280.69;1.94
2280.93;1.94
2281.17;1.94
2281.41;1.94
2281.66;1.94
2281.90;1.94
2282.14;1.94
2282.38;1.94
2282.62;1.94
2282.86;1.94
2283.10;1.94
2283.34;1.94
2283.58;1.94
2283.82;1.94
2284.07;1.94
2284.31;1.95
2284.55;1.95
2284.79;1.95
2285.03;1.95
2285.27;1.95
2285.51;1.95
2285.75;1.95
2285.99;1.95
2286.24;1.95
2286.48;1.95
2286.72;1.95
2286.96;1.95
2287.20;1.95
2287.44;1.95
2287.68;1.95
2287.92;1.95
2288.16;1.95
2288.41;1.95
2288.65;1.95
2288.89;1.95
2289.13;1.95
2289.37;1.95
2289.61;1.95
2289.85;1.95
2290.09;1.95
2290.33;1.95
2290.57;1.95
2290.82;1.95
2291.06;1.95
2291.30;1.95
2291.54;1.95
2291.78;1.95
2292.02;1.95
2292.26;1.95
2292.50;1.95
2292.74;1.95
2292.99;1.95
2293.23;1.95
2293.47;1.95
2293.71;1.95
2293.95;1.95
2294.19;1.95
2294.43;1.95
2294.67;1.95
2294.91;1.95
2295.15;1.95
2295.40;1.95
2295.64;1.95
2295.88;1.95
2296.12;1.95
2296.36;1.95
2296.60;1.95
2296.84;1.95
2297.08;1.95
2297.32;1.95
2297.57;1.95
2297.81;1.95
2298.05;1.95
2298.29;1.95
2298.53;1.95
2298.77;1.95
2299.01;1.95
2299.25;1.95
2299.49;1.95
2299.73;1.95
2299.98;1.95
2300.22;1.95
2300.46;1.95
2300.70;1.95
2300.94;1.95
2301.18;1.95
2301.42;1.95
2301.66;1.95
2301.90;1.95
2302.15;1.95
2302.39;1.95
2302.63;1.95
2302.87;1.95
2303.11;1.95
2303.35;1.95
2303.59;1.95
2303.83;1.95
2304.07;1.95
2304.32;1.95
2304.56;1.95
2304.80;1.95
2305.04;1.95
2305.28;1.95
2305.52;1.95
2305.76;1.95
2306.00;1.95
2306.24;1.95
2306.48;1.95
2306.73;1.94
2306.97;1.94
2307.21;1.95
2307.45;1.95
2307.69;1.95
2307.93;1.95
2308.17;1.94
2308.41;1.94
2308.65;1.94
2308.90;1.94
2309.14;1.94
2309.38;1.94
2309.62;1.94
2309.86;1.94
2310.10;1.94
2310.34;1.94
2310.58;1.94
2310.82;1.94
2311.06;1.94
2311.31;1.94
2311.55;1.94
2311.79;1.94
2312.03;1.94
2312.27;1.94
2312.51;1.94
2312.75;1.94
2312.99;1.94
2313.23;1.94
2313.48;1.94
2313.72;1.94
2313.96;1.94
2314.20;1.94
2314.44;1.94
2314.68;1.94
2314.92;1.94
2315.16;1.94
2315.40;1.94
2315.65;1.94
2315.89;1.94
2316.13;1.94
2316.37;1.94
2316.61;1.94
2316.85;1.94
2317.09;1.94
2317.33;1.94
2317.57;1.94
2317.81;1.94
2318.06;1.94
2318.30;1.94
2318.54;1.94
2318.78;1.94
2319.02;1.94
2319.26;1.93
2319.50;1.93
2319.74;1.93
2319.98;1.93
2320.23;1.93
2320.47;1.93
2320.71;1.93
2320.95;1.93
2321.19;1.93
2321.43;1.93
2321.67;1.93
2321.91;1.93
2322.15;1.93
2322.39;1.93
2322.64;1.93
2322.88;1.93
2323.12;1.93
2323.36;1.93
2323.60;1.93
2323.84;1.93
2324.08;1.93
2324.32;1.92
2324.56;1.92
2324.81;1.92
2325.05;1.92
2325.29;1.92
2325.53;1.92
2325.77;1.92
2326.01;1.92
2326.25;1.92
2326.49;1.92
2326.73;1.93
2326.97;1.93
2327.22;1.93
2327.46;1.93
2327.70;1.93
2327.94;1.93
2328.18;1.93
2328.42;1.92
2328.66;1.92
2328.90;1.92
2329.14;1.92
2329.39;1.92
2329.63;1.92
2329.87;1.92
2330.11;1.92
2330.35;1.92
2330.59;1.92
2330.83;1.92
2331.07;1.92
2331.31;1.92
2331.56;1.92
2331.80;1.92
2332.04;1.92
2332.28;1.92
2332.52;1.92
2332.76;1.92
2333.00;1.92
2333.24;1.92
2333.48;1.92
2333.72;1.92
2333.97;1.92
2334.21;1.92
2334.45;1.92
2334.69;1.92
2334.93;1.92
2335.17;1.92
2335.41;1.92
2335.65;1.92
2335.89;1.92
2336.14;1.92
2336.38;1.92
2336.62;1.92
2336.86;1.92
2337.10;1.92
2337.34;1.92
2337.58;1.92
2337.82;1.93
2338.06;1.93
2338.30;1.93
2338.55;1.92
2338.79;1.92
2339.03;1.92
2339.27;1.92
2339.51;1.92
2339.75;1.92
2339.99;1.92
2340.23;1.92
2340.47;1.92
2340.72;1.92
2340.96;1.92
2341.20;1.92
2341.44;1.92
2341.68;1.92
2341.92;1.93
2342.16;1.93
2342.40;1.93
2342.64;1.93
2342.89;1.93
2343.13;1.93
2343.37;1.93
2343.61;1.93
2343.85;1.92
2344.09;1.93
2344.33;1.93
2344.57;1.93
2344.81;1.93
2345.05;1.93
2345.30;1.93
2345.54;1.93
2345.78;1.94
2346.02;1.94
2346.26;1.94
2346.50;1.94
2346.74;1.94
2346.98;1.94
2347.22;1.94
2347.47;1.95
2347.71;1.95
2347.95;1.95
2348.19;1.95
2348.43;1.95
2348.67;1.95
2348.91;1.95
2349.15;1.95
2349.39;1.95
2349.63;1.95
2349.88;1.95
2350.12;1.94
2350.36;1.94
2350.60;1.94
2350.84;1.94
2351.08;1.94
2351.32;1.94
2351.56;1.94
2351.80;1.94
2352.05;1.94
2352.29;1.94
2352.53;1.94
2352.77;1.94
2353.01;1.94
2353.25;1.94
2353.49;1.94
2353.73;1.94
2353.97;1.93
2354.22;1.93
2354.46;1.93
2354.70;1.93
2354.94;1.93
2355.18;1.93
2355.42;1.93
2355.66;1.93
2355.90;1.93
2356.14;1.93
2356.38;1.93
2356.63;1.93
2356.87;1.93
2357.11;1.93
2357.35;1.93
2357.59;1.93
2357.83;1.93
2358.07;1.93
2358.31;1.93
2358.55;1.93
2358.80;1.93
2359.04;1.93
2359.28;1.93
2359.52;1.93
2359.76;1.93
2360.00;1.93
2360.24;1.93
2360.48;1.93
2360.72;1.93
2360.96;1.93
2361.21;1.93
2361.45;1.93
2361.69;1.93
2361.93;1.93
2362.17;1.93
2362.41;1.93
2362.65;1.93
2362.89;1.93
2363.13;1.93
2363.38;1.93
2363.62;1.93
2363.86;1.93
2364.10;1.93
2364.34;1.93
2364.58;1.93
2364.82;1.93
2365.06;1.93
2365.30;1.94
2365.54;1.94
2365.79;1.94
2366.03;1.94
2366.27;1.94
2366.51;1.94
2366.75;1.94
2366.99;1.94
2367.23;1.95
2367.47;1.95
2367.71;1.95
2367.96;1.95
2368.20;1.95
2368.44;1.95
2368.68;1.95
2368.92;1.96
2369.16;1.96
2369.40;1.96
2369.64;1.96
2369.88;1.96
2370.13;1.97
2370.37;1.97
2370.61;1.97
2370.85;1.97
2371.09;1.97
2371.33;1.97
2371.57;1.97
2371.81;1.97
2372.05;1.97
2372.29;1.97
2372.54;1.97
2372.78;1.97
2373.02;1.98
2373.26;1.98
2373.50;1.98
2373.74;1.98
2373.98;1.98
2374.22;1.98
2374.46;1.98
2374.71;1.99
2374.95;1.99
2375.19;1.99
2375.43;1.99
2375.67;1.99
2375.91;1.99
2376.15;1.99
2376.39;1.99
2376.63;1.99
2376.87;2.00
2377.12;2.00
2377.36;2.00
2377.60;2.00
2377.84;2.00
2378.08;2.00
2378.32;2.00
2378.56;2.00
2378.80;2.00
2379.04;2.00
2379.29;2.00
2379.53;2.00
2379.77;2.00
2380.01;2.00
2380.25;2.01
2380.49;2.01
2380.73;2.01
2380.97;2.01
2381.21;2.01
2381.46;2.01
2381.70;2.01
2381.94;2.01
2382.18;2.01
2382.42;2.01
2382.66;2.01
2382.90;2.02
2383.14;2.02
2383.38;2.02
2383.62;2.02
2383.87;2.02
2384.11;2.02
2384.35;2.02
2384.59;2.02
2384.83;2.02
2385.07;2.02
2385.31;2.02
2385.55;2.02
2385.79;2.02
2386.04;2.02
2386.28;2.03
2386.52;2.03
2386.76;2.03
2387.00;2.03
2387.24;2.03
2387.48;2.03
2387.72;2.03
2387.96;2.03
2388.20;2.03
2388.45;2.03
2388.69;2.03
2388.93;2.03
2389.17;2.03
2389.41;2.03
2389.65;2.03
2389.89;2.03
2390.13;2.03
2390.37;2.03
2390.62;2.03
2390.86;2.03
2391.10;2.04
2391.34;2.04
2391.58;2.04
2391.82;2.04
2392.06;2.04
2392.30;2.04
2392.54;2.04
2392.78;2.04
2393.03;2.04
2393.27;2.04
2393.51;2.04
2393.75;2.04
2393.99;2.04
2394.23;2.04
2394.47;2.04
2394.71;2.04
2394.95;2.04
2395.20;2.04
2395.44;2.04
2395.68;2.04
2395.92;2.04
2396.16;2.04
2396.40;2.04
2396.64;2.04
2396.88;2.04
2397.12;2.04
2397.37;2.04
2397.61;2.04
2397.85;2.04
2398.09;2.04
2398.33;2.04
2398.57;2.04
2398.81;2.04
2399.05;2.04
2399.29;2.04
2399.53;2.04
2399.78;2.04
2400.02;2.04
2400.26;2.04
2400.50;2.04
2400.74;2.04
2400.98;2.04
2401.22;2.04
2401.46;2.04
2401.70;2.04
2401.95;2.04
2402.19;2.04
2402.43;2.04
2402.67;2.04
2402.91;2.04
2403.15;2.04
2403.39;2.04
2403.63;2.04
2403.87;2.04
2404.12;2.04
2404.36;2.04
2404.60;2.04
2404.84;2.04
2405.08;2.04
2405.32;2.04
2405.56;2.04
2405.80;2.04
2406.04;2.04
2406.28;2.04
2406.53;2.04
2406.77;2.04
2407.01;2.04
2407.25;2.04
2407.49;2.04
2407.73;2.04
2407.97;2.04
2408.21;2.04
2408.45;2.04
2408.70;2.04
2408.94;2.04
2409.18;2.04
2409.42;2.04
2409.66;2.04
2409.90;2.04
2410.14;2.04
2410.38;2.04
2410.62;2.04
2410.86;2.04
2411.11;2.04
2411.35;2.04
2411.59;2.04
2411.83;2.04
2412.07;2.04
2412.31;2.04
2412.55;2.04
2412.79;2.04
2413.03;2.04
2413.28;2.04
2413.52;2.04
2413.76;2.04
2414.00;2.04
2414.24;2.04
2414.48;2.04
2414.72;2.04
2414.96;2.04
2415.20;2.04
2415.44;2.04
2415.69;2.04
2415.93;2.04
2416.17;2.04
2416.41;2.04
2416.65;2.04
2416.89;2.04
2417.13;2.04
2417.37;2.04
2417.61;2.04
2417.86;2.04
2418.10;2.04
2418.34;2.04
2418.58;2.04
2418.82;2.04
2419.06;2.04
2419.30;2.04
2419.54;2.04
2419.78;2.04
2420.02;2.04
2420.27;2.04
2420.51;2.04
2420.75;2.04
2420.99;2.04
2421.23;2.04
2421.47;2.04
2421.71;2.04
2421.95;2.04
2422.19;2.04
2422.44;2.04
2422.68;2.04
2422.92;2.04
2423.16;2.04
2423.40;2.04
2423.64;2.04
2423.88;2.04
2424.12;2.04
2424.36;2.04
2424.61;2.04
2424.85;2.04
2425.09;2.04
2425.33;2.04
2425.57;2.04
2425.81;2.04
2426.05;2.04
2426.29;2.04
2426.53;2.04
2426.77;2.04
2427.02;2.04
2427.26;2.04
2427.50;2.04
2427.74;2.04
2427.98;2.04
2428.22;2.04
2428.46;2.04
2428.70;2.04
2428.94;2.04
2429.19;2.04
2429.43;2.04
2429.67;2.03
2429.91;2.03
2430.15;2.03
2430.39;2.03
2430.63;2.03
2430.87;2.03
2431.11;2.03
2431.35;2.03
2431.60;2.03
2431.84;2.03
2432.08;2.03
2432.32;2.03
2432.56;2.03
2432.80;2.03
2433.04;2.03
2433.28;2.03
2433.52;2.03
2433.77;2.03
2434.01;2.03
2434.25;2.04
2434.49;2.04
2434.73;2.04
2434.97;2.04
2435.21;2.04
2435.45;2.04
2435.69;2.04
2435.94;2.04
2436.18;2.04
2436.42;2.04
2436.66;2.04
2436.90;2.04
2437.14;2.04
2437.38;2.04
2437.62;2.04
2437.86;2.04
2438.10;2.04
2438.35;2.04
2438.59;2.04
2438.83;2.04
2439.07;2.04
2439.31;2.04
2439.55;2.04
2439.79;2.04
2440.03;2.04
2440.27;2.04
2440.52;2.04
2440.76;2.04
2441.00;2.04
2441.24;2.04
2441.48;2.04
2441.72;2.04
2441.96;2.04
2442.20;2.04
2442.44;2.04
2442.68;2.04
2442.93;2.04
2443.17;2.04
2443.41;2.04
2443.65;2.04
2443.89;2.04
2444.13;2.04
2444.37;2.04
2444.61;2.04
2444.85;2.04
2445.10;2.04
2445.34;2.04
2445.58;2.04
2445.82;2.04
2446.06;2.04
2446.30;2.05
2446.54;2.05
2446.78;2.05
2447.02;2.05
2447.27;2.05
2447.51;2.05
2447.75;2.05
2447.99;2.05
2448.23;2.05
2448.47;2.05
2448.71;2.05
2448.95;2.05
2449.19;2.05
2449.43;2.05
2449.68;2.05
2449.92;2.05
2450.16;2.05
2450.40;2.05
2450.64;2.05
2450.88;2.05
2451.12;2.05
2451.36;2.05
2451.60;2.05
2451.85;2.05
2452.09;2.05
2452.33;2.05
2452.57;2.05
2452.81;2.06
2453.05;2.06
2453.29;2.06
2453.53;2.06
2453.77;2.06
2454.01;2.06
2454.26;2.06
2454.50;2.06
2454.74;2.06
2454.98;2.06
2455.22;2.06
2455.46;2.06
2455.70;2.06
2455.94;2.06
2456.18;2.06
2456.43;2.06
2456.67;2.06
2456.91;2.06
2457.15;2.06
2457.39;2.06
2457.63;2.06
2457.87;2.06
2458.11;2.06
2458.35;2.06
2458.59;2.06
2458.84;2.06
2459.08;2.06
2459.32;2.06
2459.56;2.07
2459.80;2.07
2460.04;2.07
2460.28;2.07
2460.52;2.07
2460.76;2.07
2461.01;2.07
2461.25;2.07
2461.49;2.07
2461.73;2.07
2461.97;2.07
2462.21;2.07
2462.45;2.07
2462.69;2.07
2462.93;2.07
2463.18;2.07
2463.42;2.07
2463.66;2.07
2463.90;2.07
2464.14;2.07
2464.38;2.07
2464.62;2.07
2464.86;2.07
2465.10;2.07
2465.34;2.07
2465.59;2.07
2465.83;2.07
2466.07;2.07
2466.31;2.07
2466.55;2.07
2466.79;2.07
2467.03;2.08
2467.27;2.08
2467.51;2.08
2467.76;2.08
2468.00;2.08
2468.24;2.08
2468.48;2.08
2468.72;2.08
2468.96;2.08
2469.20;2.08
2469.44;2.08
2469.68;2.08
2469.92;2.08
2470.17;2.08
2470.41;2.08
2470.65;2.08
2470.89;2.08
2471.13;2.08
2471.37;2.08
2471.61;2.08
2471.85;2.08
2472.09;2.08
2472.34;2.08
2472.58;2.08
2472.82;2.08
2473.06;2.08
2473.30;2.08
2473.54;2.08
2473.78;2.08
2474.02;2.08
2474.26;2.08
2474.51;2.08
2474.75;2.08
2474.99;2.08
2475.23;2.08
2475.47;2.08
2475.71;2.08
2475.95;2.08
2476.19;2.08
2476.43;2.08
2476.67;2.08
2476.92;2.08
2477.16;2.08
2477.40;2.08
2477.64;2.08
2477.88;2.08
2478.12;2.08
2478.36;2.08
2478.60;2.08
2478.84;2.08
2479.09;2.08
2479.33;2.08
2479.57;2.08
2479.81;2.08
2480.05;2.08
2480.29;2.09
2480.53;2.09
2480.77;2.09
2481.01;2.09
2481.25;2.09
2481.50;2.09
2481.74;2.09
2481.98;2.09
2482.22;2.09
2482.46;2.09
2482.70;2.09
2482.94;2.09
2483.18;2.09
2483.42;2.09
2483.67;2.09
2483.91;2.09
2484.15;2.09
2484.39;2.09
2484.63;2.09
2484.87;2.09
2485.11;2.09
2485.35;2.09
2485.59;2.09
2485.83;2.09
2486.08;2.09
2486.32;2.09
2486.56;2.09
2486.80;2.10
2487.04;2.10
2487.28;2.10
2487.52;2.10
2487.76;2.10
2488.00;2.10
2488.25;2.10
2488.49;2.10
2488.73;2.10
2488.97;2.10
2489.21;2.10
2489.45;2.10
2489.69;2.10
2489.93;2.10
2490.17;2.10
2490.42;2.10
2490.66;2.10
2490.90;2.10
2491.14;2.10
2491.38;2.10
2491.62;2.10
2491.86;2.10
2492.10;2.10
2492.34;2.10
2492.58;2.10
2492.83;2.10
2493.07;2.10
2493.31;2.10
2493.55;2.11
2493.79;2.11
2494.03;2.11
2494.27;2.11
2494.51;2.11
2494.75;2.11
2495.00;2.11
2495.24;2.11
2495.48;2.11
2495.72;2.11
2495.96;2.11
2496.20;2.11
2496.44;2.11
2496.68;2.11
2496.92;2.11
2497.17;2.11
2497.41;2.11
2497.65;2.11
2497.89;2.11
2498.13;2.11
2498.37;2.11
2498.61;2.11
2498.85;2.11
2499.09;2.11
2499.33;2.11
2499.58;2.11
2499.82;2.11
2500.06;2.11
2500.30;2.11
2500.54;2.11
2500.78;2.11
2501.02;2.11
2501.26;2.11
2501.50;2.11
2501.75;2.12
2501.99;2.12
2502.23;2.12
2502.47;2.12
2502.71;2.12
2502.95;2.12
2503.19;2.12
2503.43;2.12
2503.67;2.12
2503.91;2.12
2504.16;2.12
2504.40;2.12
2504.64;2.12
2504.88;2.12
2505.12;2.12
2505.36;2.12
2505.60;2.12
2505.84;2.12
2506.08;2.12
2506.33;2.12
2506.57;2.12
2506.81;2.12
2507.05;2.12
2507.29;2.12
2507.53;2.12
2507.77;2.12
2508.01;2.12
2508.25;2.12
2508.49;2.12
2508.74;2.12
2508.98;2.12
2509.22;2.12
2509.46;2.12
2509.70;2.12
2509.94;2.12
2510.18;2.12
2510.42;2.12
2510.66;2.12
2510.91;2.12
2511.15;2.12
2511.39;2.12
2511.63;2.12
2511.87;2.12
2512.11;2.13
2512.35;2.13
2512.59;2.13
2512.83;2.13
2513.07;2.13
2513.32;2.13
2513.56;2.13
2513.80;2.13
2514.04;2.13
2514.28;2.13
2514.52;2.13
2514.76;2.13
2515.00;2.13
2515.24;2.13
2515.49;2.13
2515.73;2.13
2515.97;2.13
2516.21;2.13
2516.45;2.13
2516.69;2.13
2516.93;2.13
2517.17;2.13
2517.41;2.13
2517.66;2.13
2517.90;2.13
2518.14;2.13
2518.38;2.13
2518.62;2.14
2518.86;2.14
2519.10;2.14
2519.34;2.14
2519.58;2.14
2519.82;2.14
2520.07;2.14
2520.31;2.14
2520.55;2.14
2520.79;2.14
2521.03;2.14
2521.27;2.14
2521.51;2.14
2521.75;2.14
2521.99;2.14
2522.24;2.14
2522.48;2.14
2522.72;2.14
2522.96;2.14
2523.20;2.14
2523.44;2.14
2523.68;2.14
2523.92;2.14
2524.16;2.15
2524.41;2.15
2524.65;2.15
2524.89;2.15
2525.13;2.15
2525.37;2.15
2525.61;2.15
2525.85;2.15
2526.09;2.15
2526.33;2.15
2526.57;2.15
2526.82;2.15
2527.06;2.15
2527.30;2.15
2527.54;2.15
2527.78;2.15
2528.02;2.15
2528.26;2.15
2528.50;2.15
2528.74;2.15
2528.99;2.15
2529.23;2.15
2529.47;2.15
2529.71;2.15
2529.95;2.15
2530.19;2.15
2530.43;2.15
2530.67;2.15
2530.91;2.15
2531.15;2.16
2531.40;2.16
2531.64;2.16
2531.88;2.16
2532.12;2.16
2532.36;2.16
2532.60;2.16
2532.84;2.16
2533.08;2.16
2533.32;2.16
2533.57;2.16
2533.81;2.16
2534.05;2.16
2534.29;2.16
2534.53;2.16
2534.77;2.16
2535.01;2.16
2535.25;2.16
2535.49;2.16
2535.73;2.16
2535.98;2.16
2536.22;2.16
2536.46;2.16
2536.70;2.16
2536.94;2.16
2537.18;2.16
2537.42;2.16
2537.66;2.16
2537.90;2.16
2538.15;2.16
2538.39;2.16
2538.63;2.16
2538.87;2.16
2539.11;2.16
2539.35;2.16
2539.59;2.16
2539.83;2.17
2540.07;2.17
2540.32;2.17
2540.56;2.17
2540.80;2.17
2541.04;2.17
2541.28;2.17
2541.52;2.17
2541.76;2.17
2542.00;2.16
2542.24;2.16
2542.48;2.16
2542.73;2.16
2542.97;2.16
2543.21;2.16
2543.45;2.16
2543.69;2.16
2543.93;2.16
2544.17;2.16
2544.41;2.16
2544.65;2.16
2544.90;2.16
2545.14;2.16
2545.38;2.16
2545.62;2.16
2545.86;2.17
2546.10;2.17
2546.34;2.17
2546.58;2.17
2546.82;2.17
2547.06;2.17
2547.31;2.17
2547.55;2.17
2547.79;2.17
2548.03;2.17
2548.27;2.17
2548.51;2.17
2548.75;2.17
2548.99;2.17
2549.23;2.17
2549.48;2.17
2549.72;2.17
2549.96;2.17
2550.20;2.17
2550.44;2.17
2550.68;2.17
2550.92;2.17
2551.16;2.17
2551.40;2.17
2551.65;2.17
2551.89;2.17
2552.13;2.17
2552.37;2.17
2552.61;2.17
2552.85;2.17
2553.09;2.17
2553.33;2.17
2553.57;2.18
2553.81;2.18
2554.06;2.18
2554.30;2.18
2554.54;2.18
2554.78;2.18
2555.02;2.18
2555.26;2.18
2555.50;2.18
2555.74;2.18
2555.98;2.18
2556.23;2.18
2556.47;2.18
2556.71;2.18
2556.95;2.18
2557.19;2.18
2557.43;2.18
2557.67;2.18
2557.91;2.18
2558.15;2.19
2558.39;2.19
2558.64;2.19
2558.88;2.19
2559.12;2.19
2559.36;2.19
2559.60;2.19
2559.84;2.19
2560.08;2.19
2560.32;2.19
2560.56;2.19
2560.81;2.19
2561.05;2.19
2561.29;2.19
2561.53;2.20
2561.77;2.20
2562.01;2.20
2562.25;2.20
2562.49;2.20
2562.73;2.20
2562.97;2.20
2563.22;2.20
2563.46;2.20
2563.70;2.20
2563.94;2.21
2564.18;2.21
2564.42;2.21
2564.66;2.21
2564.90;2.21
2565.14;2.21
2565.39;2.21
2565.63;2.21
2565.87;2.21
2566.11;2.21
2566.35;2.21
2566.59;2.21
2566.83;2.21
2567.07;2.21
2567.31;2.21
2567.56;2.22
2567.80;2.22
2568.04;2.22
2568.28;2.22
2568.52;2.22
2568.76;2.22
2569.00;2.22
2569.24;2.22
2569.48;2.22
2569.72;2.22
2569.97;2.22
2570.21;2.22
2570.45;2.22
2570.69;2.22
2570.93;2.23
2571.17;2.23
2571.41;2.23
2571.65;2.23
2571.89;2.23
2572.14;2.23
2572.38;2.23
2572.62;2.23
2572.86;2.23
2573.10;2.23
2573.34;2.23
2573.58;2.23
2573.82;2.23
2574.06;2.23
2574.30;2.23
2574.55;2.23
2574.79;2.23
2575.03;2.23
2575.27;2.23
2575.51;2.23
2575.75;2.23
2575.99;2.23
2576.23;2.23
2576.47;2.23
2576.72;2.23
2576.96;2.23
2577.20;2.23
2577.44;2.23
2577.68;2.23
2577.92;2.22
2578.16;2.22
2578.40;2.22
2578.64;2.22
2578.89;2.22
2579.13;2.22
2579.37;2.22
2579.61;2.22
2579.85;2.22
2580.09;2.22
2580.33;2.22
2580.57;2.22
2580.81;2.22
2581.05;2.22
2581.30;2.22
2581.54;2.22
2581.78;2.22
2582.02;2.22
2582.26;2.22
2582.50;2.22
2582.74;2.22
2582.98;2.22
2583.22;2.22
2583.47;2.22
2583.71;2.22
2583.95;2.22
2584.19;2.22
2584.43;2.22
2584.67;2.22
2584.91;2.22
2585.15;2.22
2585.39;2.22
2585.63;2.22
2585.88;2.22
2586.12;2.23
2586.36;2.23
2586.60;2.23
2586.84;2.23
2587.08;2.23
2587.32;2.23
2587.56;2.23
2587.80;2.23
2588.05;2.23
2588.29;2.23
2588.53;2.23
2588.77;2.23
2589.01;2.23
2589.25;2.23
2589.49;2.23
2589.73;2.23
2589.97;2.24
2590.22;2.24
2590.46;2.24
2590.70;2.24
2590.94;2.24
2591.18;2.24
2591.42;2.24
2591.66;2.24
2591.90;2.24
2592.14;2.24
2592.38;2.24
2592.63;2.25
2592.87;2.25
2593.11;2.25
2593.35;2.25
2593.59;2.25
2593.83;2.25
2594.07;2.25
2594.31;2.25
2594.55;2.25
2594.80;2.26
2595.04;2.26
2595.28;2.26
2595.52;2.26
2595.76;2.26
2596.00;2.26
2596.24;2.26
2596.48;2.26
2596.72;2.26
2596.96;2.26
2597.21;2.26
2597.45;2.27
2597.69;2.27
2597.93;2.27
2598.17;2.27
2598.41;2.27
2598.65;2.27
2598.89;2.27
2599.13;2.27
2599.38;2.27
2599.62;2.27
2599.86;2.27
2600.10;2.27
2600.34;2.27
2600.58;2.27
2600.82;2.27
2601.06;2.27
2601.30;2.27
2601.54;2.27
2601.79;2.27
2602.03;2.27
2602.27;2.27
2602.51;2.27
2602.75;2.27
2602.99;2.27
2603.23;2.27
2603.47;2.27
2603.71;2.27
2603.96;2.27
2604.20;2.27
2604.44;2.27
2604.68;2.26
2604.92;2.26
2605.16;2.26
2605.40;2.26
2605.64;2.26
2605.88;2.26
2606.13;2.26
2606.37;2.26
2606.61;2.26
2606.85;2.26
2607.09;2.26
2607.33;2.26
2607.57;2.26
2607.81;2.26
2608.05;2.26
2608.29;2.25
2608.54;2.25
2608.78;2.25
2609.02;2.25
2609.26;2.25
2609.50;2.25
2609.74;2.25
2609.98;2.25
2610.22;2.24
2610.46;2.24
2610.71;2.24
2610.95;2.24
2611.19;2.24
2611.43;2.24
2611.67;2.24
2611.91;2.24
2612.15;2.24
2612.39;2.24
2612.63;2.23
2612.87;2.23
2613.12;2.23
2613.36;2.23
2613.60;2.23
2613.84;2.23
2614.08;2.23
2614.32;2.23
2614.56;2.23
2614.80;2.23
2615.04;2.23
2615.29;2.23
2615.53;2.23
2615.77;2.23
2616.01;2.23
2616.25;2.23
2616.49;2.23
2616.73;2.23
2616.97;2.23
2617.21;2.23
2617.46;2.22
2617.70;2.22
2617.94;2.22
2618.18;2.22
2618.42;2.22
2618.66;2.22
2618.90;2.22
2619.14;2.22
2619.38;2.22
2619.62;2.22
2619.87;2.22
2620.11;2.22
2620.35;2.22
2620.59;2.22
2620.83;2.22
2621.07;2.23
2621.31;2.23
2621.55;2.23
2621.79;2.23
2622.04;2.23
2622.28;2.23
2622.52;2.23
2622.76;2.23
2623.00;2.23
2623.24;2.23
2623.48;2.23
2623.72;2.23
2623.96;2.23
2624.20;2.23
2624.45;2.23
2624.69;2.23
2624.93;2.23
2625.17;2.23
2625.41;2.23
2625.65;2.23
2625.89;2.23
2626.13;2.23
2626.37;2.23
2626.62;2.23
2626.86;2.23
2627.10;2.24
2627.34;2.24
2627.58;2.24
2627.82;2.24
2628.06;2.24
2628.30;2.24
2628.54;2.24
2628.78;2.24
2629.03;2.24
2629.27;2.24
2629.51;2.24
2629.75;2.24
2629.99;2.25
2630.23;2.25
2630.47;2.25
2630.71;2.25
2630.95;2.25
2631.20;2.25
2631.44;2.25
2631.68;2.25
2631.92;2.25
2632.16;2.25
2632.40;2.25
2632.64;2.25
2632.88;2.25
2633.12;2.25
2633.37;2.25
2633.61;2.25
2633.85;2.25
2634.09;2.25
2634.33;2.25
2634.57;2.25
2634.81;2.25
2635.05;2.25
2635.29;2.25
2635.53;2.25
2635.78;2.25
2636.02;2.25
2636.26;2.25
2636.50;2.25
2636.74;2.25
2636.98;2.25
2637.22;2.25
2637.46;2.25
2637.70;2.25
2637.95;2.25
2638.19;2.25
2638.43;2.25
2638.67;2.25
2638.91;2.25
2639.15;2.25
2639.39;2.25
2639.63;2.25
2639.87;2.25
2640.12;2.25
2640.36;2.25
2640.60;2.25
2640.84;2.25
2641.08;2.25
2641.32;2.25
2641.56;2.25
2641.80;2.25
2642.04;2.25
2642.28;2.25
2642.53;2.26
2642.77;2.26
2643.01;2.26
2643.25;2.26
2643.49;2.26
2643.73;2.26
2643.97;2.26
2644.21;2.25
2644.45;2.25
2644.70;2.26
2644.94;2.26
2645.18;2.26
2645.42;2.26
2645.66;2.26
2645.90;2.26
2646.14;2.26
2646.38;2.26
2646.62;2.26
2646.86;2.26
2647.11;2.26
2647.35;2.26
2647.59;2.26
2647.83;2.26
2648.07;2.26
2648.31;2.26
2648.55;2.26
2648.79;2.26
2649.03;2.26
2649.28;2.26
2649.52;2.26
2649.76;2.26
2650.00;2.26
2650.24;2.26
2650.48;2.26
2650.72;2.26
2650.96;2.26
2651.20;2.26
2651.44;2.26
2651.69;2.26
2651.93;2.26
2652.17;2.26
2652.41;2.27
2652.65;2.27
2652.89;2.27
2653.13;2.27
2653.37;2.27
2653.61;2.27
2653.86;2.27
2654.10;2.27
2654.34;2.27
2654.58;2.27
2654.82;2.27
2655.06;2.27
2655.30;2.27
2655.54;2.27
2655.78;2.27
2656.02;2.27
2656.27;2.27
2656.51;2.27
2656.75;2.28
2656.99;2.28
2657.23;2.28
2657.47;2.28
2657.71;2.28
2657.95;2.28
2658.19;2.28
2658.44;2.28
2658.68;2.28
2658.92;2.28
2659.16;2.28
2659.40;2.28
2659.64;2.28
2659.88;2.28
2660.12;2.28
2660.36;2.29
2660.61;2.29
2660.85;2.29
2661.09;2.29
2661.33;2.29
2661.57;2.29
2661.81;2.29
2662.05;2.29
2662.29;2.29
2662.53;2.29
2662.77;2.29
2663.02;2.29
2663.26;2.29
2663.50;2.30
2663.74;2.30
2663.98;2.30
2664.22;2.30
2664.46;2.30
2664.70;2.30
2664.94;2.30
2665.19;2.30
2665.43;2.30
2665.67;2.30
2665.91;2.30
2666.15;2.30
2666.39;2.30
2666.63;2.31
2666.87;2.31
2667.11;2.31
2667.35;2.31
2667.60;2.31
2667.84;2.31
2668.08;2.31
2668.32;2.31
2668.56;2.31
2668.80;2.31
2669.04;2.31
2669.28;2.31
2669.52;2.32
2669.77;2.32
2670.01;2.32
2670.25;2.32
2670.49;2.32
2670.73;2.32
2670.97;2.32
2671.21;2.32
2671.45;2.32
2671.69;2.32
2671.94;2.32
2672.18;2.32
2672.42;2.32
2672.66;2.32
2672.90;2.32
2673.14;2.32
2673.38;2.32
2673.62;2.33
2673.86;2.33
2674.10;2.33
2674.35;2.33
2674.59;2.33
2674.83;2.33
2675.07;2.33
2675.31;2.33
2675.55;2.33
2675.79;2.33
2676.03;2.33
2676.27;2.33
2676.52;2.33
2676.76;2.33
2677.00;2.33
2677.24;2.33
2677.48;2.34
2677.72;2.34
2677.96;2.34
2678.20;2.34
2678.44;2.34
2678.68;2.34
2678.93;2.34
2679.17;2.34
2679.41;2.34
2679.65;2.34
2679.89;2.34
2680.13;2.34
2680.37;2.34
2680.61;2.34
2680.85;2.35
2681.10;2.35
2681.34;2.35
2681.58;2.35
2681.82;2.35
2682.06;2.35
2682.30;2.35
2682.54;2.35
2682.78;2.35
2683.02;2.35
2683.27;2.35
2683.51;2.36
2683.75;2.36
2683.99;2.36
2684.23;2.36
2684.47;2.36
2684.71;2.36
2684.95;2.36
2685.19;2.36
2685.43;2.36
2685.68;2.36
2685.92;2.37
2686.16;2.37
2686.40;2.37
2686.64;2.37
2686.88;2.37
2687.12;2.37
2687.36;2.37
2687.60;2.37
2687.85;2.37
2688.09;2.37
2688.33;2.37
2688.57;2.37
2688.81;2.37
2689.05;2.37
2689.29;2.37
2689.53;2.37
2689.77;2.37
2690.01;2.37
2690.26;2.37
2690.50;2.38
2690.74;2.38
2690.98;2.38
2691.22;2.38
2691.46;2.38
2691.70;2.38
2691.94;2.38
2692.18;2.38
2692.43;2.38
2692.67;2.38
2692.91;2.38
2693.15;2.38
2693.39;2.38
2693.63;2.38
2693.87;2.38
2694.11;2.38
2694.35;2.38
2694.59;2.38
2694.84;2.38
2695.08;2.38
2695.32;2.38
2695.56;2.38
2695.80;2.38
2696.04;2.38
2696.28;2.38
2696.52;2.38
2696.76;2.38
2697.01;2.38
2697.25;2.38
2697.49;2.38
2697.73;2.38
2697.97;2.38
2698.21;2.38
2698.45;2.38
2698.69;2.38
2698.93;2.38
2699.18;2.37
2699.42;2.37
2699.66;2.37
2699.90;2.37
2700.14;2.37
2700.38;2.37
2700.62;2.37
2700.86;2.37
2701.10;2.37
2701.34;2.36
2701.59;2.36
2701.83;2.36
2702.07;2.36
2702.31;2.36
2702.55;2.36
2702.79;2.36
2703.03;2.36
2703.27;2.36
2703.51;2.36
2703.76;2.36
2704.00;2.36
2704.24;2.36
2704.48;2.36
2704.72;2.36
2704.96;2.36
2705.20;2.36
2705.44;2.36
2705.68;2.36
2705.92;2.36
2706.17;2.36
2706.41;2.36
2706.65;2.36
2706.89;2.36
2707.13;2.36
2707.37;2.36
2707.61;2.36
2707.85;2.36
2708.09;2.36
2708.34;2.36
2708.58;2.36
2708.82;2.36
2709.06;2.36
2709.30;2.36
2709.54;2.36
2709.78;2.36
2710.02;2.36
2710.26;2.36
2710.51;2.36
2710.75;2.36
2710.99;2.36
2711.23;2.36
2711.47;2.36
2711.71;2.36
2711.95;2.36
2712.19;2.36
2712.43;2.36
2712.67;2.36
2712.92;2.36
2713.16;2.36
2713.40;2.36
2713.64;2.36
2713.88;2.36
2714.12;2.36
2714.36;2.36
2714.60;2.36
2714.84;2.36
2715.09;2.36
2715.33;2.35
2715.57;2.35
2715.81;2.35
2716.05;2.35
2716.29;2.35
2716.53;2.35
2716.77;2.35
2717.01;2.35
2717.25;2.35
2717.50;2.35
2717.74;2.35
2717.98;2.34
2718.22;2.34
2718.46;2.34
2718.70;2.34
2718.94;2.34
2719.18;2.34
2719.42;2.34
2719.67;2.34
2719.91;2.34
2720.15;2.34
2720.39;2.34
2720.63;2.33
2720.87;2.33
2721.11;2.33
2721.35;2.33
2721.59;2.33
2721.83;2.33
2722.08;2.33
2722.32;2.32
2722.56;2.32
2722.80;2.32
2723.04;2.32
2723.28;2.32
2723.52;2.32
2723.76;2.32
2724.00;2.32
2724.25;2.32
2724.49;2.32
2724.73;2.32
2724.97;2.32
2725.21;2.32
2725.45;2.32
2725.69;2.32
2725.93;2.32
2726.17;2.32
2726.42;2.32
2726.66;2.32
2726.90;2.32
2727.14;2.32
2727.38;2.32
2727.62;2.32
2727.86;2.32
2728.10;2.32
2728.34;2.32
2728.58;2.32
2728.83;2.32
2729.07;2.32
2729.31;2.32
2729.55;2.32
2729.79;2.32
2730.03;2.32
2730.27;2.32
2730.51;2.32
2730.75;2.32
2731.00;2.32
2731.24;2.32
2731.48;2.32
2731.72;2.32
2731.96;2.32
2732.20;2.32
2732.44;2.32
2732.68;2.32
2732.92;2.32
2733.17;2.32
2733.41;2.32
2733.65;2.32
2733.89;2.32
2734.13;2.32
2734.37;2.32
2734.61;2.32
2734.85;2.32
2735.09;2.32
2735.33;2.32
2735.58;2.32
2735.82;2.32
2736.06;2.32
2736.30;2.32
2736.54;2.32
2736.78;2.33
2737.02;2.33
2737.26;2.33
2737.50;2.33
2737.75;2.33
2737.99;2.33
2738.23;2.33
2738.47;2.33
2738.71;2.33
2738.95;2.33
2739.19;2.33
2739.43;2.33
2739.67;2.33
2739.91;2.33
2740.16;2.33
2740.40;2.33
2740.64;2.33
2740.88;2.33
2741.12;2.33
2741.36;2.33
2741.60;2.33
2741.84;2.34
2742.08;2.34
2742.33;2.34
2742.57;2.34
2742.81;2.34
2743.05;2.34
2743.29;2.34
2743.53;2.34
2743.77;2.34
2744.01;2.34
2744.25;2.34
2744.49;2.34
2744.74;2.34
2744.98;2.35
2745.22;2.35
2745.46;2.35
2745.70;2.35
2745.94;2.35
2746.18;2.35
2746.42;2.35
2746.66;2.35
2746.91;2.35
2747.15;2.35
2747.39;2.35
2747.63;2.35
2747.87;2.35
2748.11;2.35
2748.35;2.35
2748.59;2.35
2748.83;2.35
2749.08;2.35
2749.32;2.35
2749.56;2.35
2749.80;2.35
2750.04;2.35
2750.28;2.35
2750.52;2.35
2750.76;2.35
2751.00;2.35
2751.24;2.35
2751.49;2.35
2751.73;2.35
2751.97;2.35
2752.21;2.35
2752.45;2.35
2752.69;2.35
2752.93;2.35
2753.17;2.35
2753.41;2.35
2753.66;2.35
2753.90;2.35
2754.14;2.35
2754.38;2.35
2754.62;2.35
2754.86;2.35
2755.10;2.35
2755.34;2.35
2755.58;2.35
2755.82;2.35
2756.07;2.35
2756.31;2.35
2756.55;2.35
2756.79;2.35
2757.03;2.35
2757.27;2.35
2757.51;2.35
2757.75;2.35
2757.99;2.35
2758.24;2.35
2758.48;2.35
2758.72;2.35
2758.96;2.35
2759.20;2.35
2759.44;2.35
2759.68;2.35
2759.92;2.35
2760.16;2.35
2760.41;2.35
2760.65;2.35
2760.89;2.35
2761.13;2.35
2761.37;2.35
2761.61;2.35
2761.85;2.35
2762.09;2.35
2762.33;2.35
2762.57;2.35
2762.82;2.35
2763.06;2.35
2763.30;2.35
2763.54;2.35
2763.78;2.35
2764.02;2.35
2764.26;2.35
2764.50;2.35
2764.74;2.35
2764.99;2.35
2765.23;2.35
2765.47;2.35
2765.71;2.35
2765.95;2.35
2766.19;2.36
2766.43;2.36
2766.67;2.36
2766.91;2.36
2767.15;2.36
2767.40;2.36
2767.64;2.36
2767.88;2.36
2768.12;2.36
2768.36;2.36
2768.60;2.36
2768.84;2.36
2769.08;2.36
2769.32;2.36
2769.57;2.36
2769.81;2.36
2770.05;2.36
2770.29;2.36
2770.53;2.36
2770.77;2.36
2771.01;2.37
2771.25;2.37
2771.49;2.37
2771.73;2.37
2771.98;2.37
2772.22;2.37
2772.46;2.37
2772.70;2.37
2772.94;2.37
2773.18;2.37
2773.42;2.37
2773.66;2.37
2773.90;2.37
2774.15;2.38
2774.39;2.38
2774.63;2.38
2774.87;2.38
2775.11;2.38
2775.35;2.38
2775.59;2.38
2775.83;2.38
2776.07;2.38
2776.32;2.38
2776.56;2.38
2776.80;2.38
2777.04;2.38
2777.28;2.38
2777.52;2.38
2777.76;2.38
2778.00;2.39
2778.24;2.39
2778.48;2.39
2778.73;2.39
2778.97;2.39
2779.21;2.39
2779.45;2.39
2779.69;2.39
2779.93;2.39
2780.17;2.39
2780.41;2.39
2780.65;2.39
2780.90;2.39
2781.14;2.39
2781.38;2.39
2781.62;2.40
2781.86;2.40
2782.10;2.40
2782.34;2.40
2782.58;2.40
2782.82;2.40
2783.06;2.40
2783.31;2.40
2783.55;2.40
2783.79;2.40
2784.03;2.40
2784.27;2.40
2784.51;2.40
2784.75;2.40
2784.99;2.40
2785.23;2.40
2785.48;2.40
2785.72;2.40
2785.96;2.40
2786.20;2.40
2786.44;2.40
2786.68;2.40
2786.92;2.40
2787.16;2.40
2787.40;2.40
2787.65;2.40
2787.89;2.41
2788.13;2.41
2788.37;2.41
2788.61;2.41
2788.85;2.41
2789.09;2.41
2789.33;2.41
2789.57;2.41
2789.81;2.41
2790.06;2.41
2790.30;2.41
2790.54;2.41
2790.78;2.41
2791.02;2.41
2791.26;2.41
2791.50;2.41
2791.74;2.41
2791.98;2.41
2792.23;2.41
2792.47;2.41
2792.71;2.41
2792.95;2.41
2793.19;2.41
2793.43;2.41
2793.67;2.41
2793.91;2.41
2794.15;2.41
2794.39;2.41
2794.64;2.41
2794.88;2.41
2795.12;2.41
2795.36;2.41
2795.60;2.41
2795.84;2.41
2796.08;2.41
2796.32;2.41
2796.56;2.41
2796.81;2.41
2797.05;2.41
2797.29;2.42
2797.53;2.42
2797.77;2.42
2798.01;2.42
2798.25;2.42
2798.49;2.41
2798.73;2.41
2798.98;2.41
2799.22;2.41
2799.46;2.41
2799.70;2.41
2799.94;2.41
2800.18;2.41
2800.42;2.41
2800.66;2.41
2800.90;2.41
2801.14;2.41
2801.39;2.41
2801.63;2.41
2801.87;2.41
2802.11;2.41
2802.35;2.42
2802.59;2.41
2802.83;2.41
2803.07;2.41
2803.31;2.41
2803.56;2.41
2803.80;2.41
2804.04;2.41
2804.28;2.41
2804.52;2.41
2804.76;2.41
2805.00;2.41
2805.24;2.41
2805.48;2.41
2805.72;2.41
2805.97;2.41
2806.21;2.41
2806.45;2.41
2806.69;2.41
2806.93;2.41
2807.17;2.41
2807.41;2.41
2807.65;2.40
2807.89;2.40
2808.14;2.40
2808.38;2.40
2808.62;2.40
2808.86;2.40
2809.10;2.40
2809.34;2.40
2809.58;2.40
2809.82;2.40
2810.06;2.40
2810.30;2.40
2810.55;2.40
2810.79;2.40
2811.03;2.40
2811.27;2.40
2811.51;2.40
2811.75;2.40
2811.99;2.39
2812.23;2.39
2812.47;2.39
2812.72;2.39
2812.96;2.39
2813.20;2.39
2813.44;2.39
2813.68;2.39
2813.92;2.39
2814.16;2.39
2814.40;2.39
2814.64;2.39
2814.89;2.39
2815.13;2.39
2815.37;2.39
2815.61;2.39
2815.85;2.39
2816.09;2.39
2816.33;2.39
2816.57;2.39
2816.81;2.39
2817.05;2.39
2817.30;2.39
2817.54;2.39
2817.78;2.39
2818.02;2.38
2818.26;2.38
2818.50;2.38
2818.74;2.38
2818.98;2.38
2819.22;2.38
2819.47;2.38
2819.71;2.38
2819.95;2.38
2820.19;2.38
2820.43;2.38
2820.67;2.38
2820.91;2.38
2821.15;2.38
2821.39;2.38
2821.63;2.38
2821.88;2.38
2822.12;2.38
2822.36;2.38
2822.60;2.38
2822.84;2.38
2823.08;2.38
2823.32;2.38
2823.56;2.38
2823.80;2.38
2824.05;2.37
2824.29;2.37
2824.53;2.37
2824.77;2.37
2825.01;2.37
2825.25;2.37
2825.49;2.37
2825.73;2.37
2825.97;2.37
2826.22;2.37
2826.46;2.37
2826.70;2.37
2826.94;2.37
2827.18;2.37
2827.42;2.37
2827.66;2.37
2827.90;2.37
2828.14;2.37
2828.38;2.37
2828.63;2.37
2828.87;2.37
2829.11;2.37
2829.35;2.37
2829.59;2.37
2829.83;2.37
2830.07;2.37
2830.31;2.37
2830.55;2.37
2830.80;2.37
2831.04;2.37
2831.28;2.37
2831.52;2.37
2831.76;2.37
2832.00;2.37
2832.24;2.37
2832.48;2.37
2832.72;2.37
2832.96;2.37
2833.21;2.37
2833.45;2.37
2833.69;2.37
2833.93;2.37
2834.17;2.37
2834.41;2.36
2834.65;2.36
2834.89;2.36
2835.13;2.36
2835.38;2.36
2835.62;2.36
2835.86;2.36
2836.10;2.36
2836.34;2.36
2836.58;2.36
2836.82;2.36
2837.06;2.36
2837.30;2.36
2837.54;2.36
2837.79;2.36
2838.03;2.36
2838.27;2.36
2838.51;2.36
2838.75;2.36
2838.99;2.36
2839.23;2.36
2839.47;2.36
2839.71;2.36
2839.96;2.36
2840.20;2.36
2840.44;2.35
2840.68;2.35
2840.92;2.35
2841.16;2.35
2841.40;2.35
2841.64;2.35
2841.88;2.35
2842.13;2.35
2842.37;2.34
2842.61;2.34
2842.85;2.34
2843.09;2.34
2843.33;2.34
2843.57;2.34
2843.81;2.34
2844.05;2.34
2844.29;2.34
2844.54;2.34
2844.78;2.34
2845.02;2.34
2845.26;2.34
2845.50;2.33
2845.74;2.33
2845.98;2.33
2846.22;2.33
2846.46;2.33
2846.71;2.33
2846.95;2.33
2847.19;2.33
2847.43;2.33
2847.67;2.33
2847.91;2.33
2848.15;2.33
2848.39;2.32
2848.63;2.32
2848.87;2.32
2849.12;2.32
2849.36;2.32
2849.60;2.32
2849.84;2.32
2850.08;2.32
2850.32;2.32
2850.56;2.32
2850.80;2.32
2851.04;2.32
2851.29;2.32
2851.53;2.32
2851.77;2.32
2852.01;2.32
2852.25;2.32
2852.49;2.32
2852.73;2.32
2852.97;2.32
2853.21;2.33
2853.46;2.33
2853.70;2.33
2853.94;2.33
2854.18;2.33
2854.42;2.33
2854.66;2.33
2854.90;2.33
2855.14;2.33
2855.38;2.33
2855.62;2.33
2855.87;2.33
2856.11;2.33
2856.35;2.33
2856.59;2.33
2856.83;2.33
2857.07;2.33
2857.31;2.33
2857.55;2.33
2857.79;2.33
2858.04;2.33
2858.28;2.33
2858.52;2.33
2858.76;2.33
2859.00;2.33
2859.24;2.33
2859.48;2.33
2859.72;2.33
2859.96;2.33
2860.20;2.33
2860.45;2.33
2860.69;2.33
2860.93;2.33
2861.17;2.33
2861.41;2.33
2861.65;2.33
2861.89;2.33
2862.13;2.33
2862.37;2.33
2862.62;2.33
2862.86;2.33
2863.10;2.33
2863.34;2.33
2863.58;2.33
2863.82;2.33
2864.06;2.33
2864.30;2.33
2864.54;2.32
2864.78;2.32
2865.03;2.32
2865.27;2.32
2865.51;2.32
2865.75;2.32
2865.99;2.32
2866.23;2.32
2866.47;2.32
2866.71;2.32
2866.95;2.32
2867.20;2.32
2867.44;2.32
2867.68;2.32
2867.92;2.32
2868.16;2.32
2868.40;2.32
2868.64;2.32
2868.88;2.32
2869.12;2.32
2869.37;2.32
2869.61;2.32
2869.85;2.32
2870.09;2.32
2870.33;2.32
2870.57;2.32
2870.81;2.32
2871.05;2.32
2871.29;2.32
2871.53;2.32
2871.78;2.32
2872.02;2.32
2872.26;2.32
2872.50;2.32
2872.74;2.32
2872.98;2.32
2873.22;2.32
2873.46;2.32
2873.70;2.32
2873.95;2.32
2874.19;2.32
2874.43;2.32
2874.67;2.32
2874.91;2.32
2875.15;2.32
2875.39;2.32
2875.63;2.32
2875.87;2.32
2876.12;2.32
2876.36;2.32
2876.60;2.32
2876.84;2.31
2877.08;2.31
2877.32;2.31
2877.56;2.31
2877.80;2.31
2878.04;2.31
2878.28;2.31
2878.53;2.31
2878.77;2.31
2879.01;2.31
2879.25;2.31
2879.49;2.31
2879.73;2.31
2879.97;2.31
2880.21;2.31
2880.45;2.31
2880.70;2.31
2880.94;2.31
2881.18;2.31
2881.42;2.31
2881.66;2.31
2881.90;2.30
2882.14;2.30
2882.38;2.30
2882.62;2.30
2882.86;2.30
2883.11;2.30
2883.35;2.30
2883.59;2.30
2883.83;2.30
2884.07;2.30
2884.31;2.30
2884.55;2.30
2884.79;2.30
2885.03;2.30
2885.28;2.29
2885.52;2.29
2885.76;2.29
2886.00;2.29
2886.24;2.29
2886.48;2.29
2886.72;2.29
2886.96;2.29
2887.20;2.29
2887.44;2.29
2887.69;2.29
2887.93;2.29
2888.17;2.29
2888.41;2.29
2888.65;2.29
2888.89;2.29
2889.13;2.29
2889.37;2.29
2889.61;2.29
2889.86;2.29
2890.10;2.29
2890.34;2.29
2890.58;2.29
2890.82;2.29
2891.06;2.29
2891.30;2.29
2891.54;2.29
2891.78;2.29
2892.03;2.29
2892.27;2.29
2892.51;2.29
2892.75;2.29
2892.99;2.30
2893.23;2.30
2893.47;2.30
2893.71;2.30
2893.95;2.30
2894.19;2.30
2894.44;2.30
2894.68;2.30
2894.92;2.30
2895.16;2.30
2895.40;2.30
2895.64;2.30
2895.88;2.30
2896.12;2.30
2896.36;2.31
2896.61;2.31
2896.85;2.31
2897.09;2.31
2897.33;2.31
2897.57;2.31
2897.81;2.31
2898.05;2.31
2898.29;2.31
2898.53;2.31
2898.77;2.31
2899.02;2.31
2899.26;2.31
2899.50;2.31
2899.74;2.31
2899.98;2.31
2900.22;2.31
2900.46;2.31
2900.70;2.31
2900.94;2.31
2901.19;2.31
2901.43;2.31
2901.67;2.31
2901.91;2.31
2902.15;2.31
2902.39;2.31
2902.63;2.31
2902.87;2.31
2903.11;2.31
2903.35;2.31
2903.60;2.31
2903.84;2.31
2904.08;2.31
2904.32;2.31
2904.56;2.31
2904.80;2.31
2905.04;2.31
2905.28;2.31
2905.52;2.31
2905.77;2.30
2906.01;2.30
2906.25;2.30
2906.49;2.30
2906.73;2.30
2906.97;2.30
2907.21;2.30
2907.45;2.30
2907.69;2.30
2907.94;2.30
2908.18;2.30
2908.42;2.30
2908.66;2.30
2908.90;2.30
2909.14;2.30
2909.38;2.30
2909.62;2.30
2909.86;2.30
2910.10;2.30
2910.35;2.30
2910.59;2.30
2910.83;2.30
2911.07;2.30
2911.31;2.30
2911.55;2.30
2911.79;2.30
2912.03;2.30
2912.27;2.30
2912.52;2.30
2912.76;2.30
2913.00;2.30
2913.24;2.30
2913.48;2.30
2913.72;2.30
2913.96;2.30
2914.20;2.30
2914.44;2.30
2914.68;2.30
2914.93;2.30
2915.17;2.30
2915.41;2.30
2915.65;2.30
2915.89;2.30
2916.13;2.30
2916.37;2.29
2916.61;2.29
2916.85;2.29
2917.10;2.29
2917.34;2.29
2917.58;2.29
2917.82;2.29
2918.06;2.29
2918.30;2.29
2918.54;2.29
2918.78;2.29
2919.02;2.29
2919.27;2.29
2919.51;2.29
2919.75;2.29
2919.99;2.29
2920.23;2.29
2920.47;2.29
2920.71;2.29
2920.95;2.29
2921.19;2.29
2921.43;2.29
2921.68;2.29
2921.92;2.29
2922.16;2.29
2922.40;2.29
2922.64;2.29
2922.88;2.29
2923.12;2.29
2923.36;2.29
2923.60;2.29
2923.85;2.29
2924.09;2.29
2924.33;2.29
2924.57;2.29
2924.81;2.29
2925.05;2.29
2925.29;2.29
2925.53;2.29
2925.77;2.29
2926.01;2.29
2926.26;2.29
2926.50;2.29
2926.74;2.29
2926.98;2.29
2927.22;2.29
2927.46;2.29
2927.70;2.29
2927.94;2.29
2928.18;2.29
2928.43;2.29
2928.67;2.30
2928.91;2.30
2929.15;2.30
2929.39;2.30
2929.63;2.30
2929.87;2.30
2930.11;2.30
2930.35;2.30
2930.59;2.30
2930.84;2.30
2931.08;2.30
2931.32;2.30
2931.56;2.30
2931.80;2.30
2932.04;2.30
2932.28;2.30
2932.52;2.31
2932.76;2.31
2933.01;2.31
2933.25;2.31
2933.49;2.31
2933.73;2.31
2933.97;2.31
2934.21;2.31
2934.45;2.31
2934.69;2.32
2934.93;2.32
2935.18;2.32
2935.42;2.32
2935.66;2.32
2935.90;2.32
2936.14;2.32
2936.38;2.32
2936.62;2.32
2936.86;2.32
2937.10;2.32
2937.34;2.32
2937.59;2.32
2937.83;2.33
2938.07;2.33
2938.31;2.33
2938.55;2.33
2938.79;2.33
2939.03;2.33
2939.27;2.33
2939.51;2.33
2939.76;2.34
2940.00;2.34
2940.24;2.34
2940.48;2.34
2940.72;2.34
2940.96;2.34
2941.20;2.34
2941.44;2.34
2941.68;2.34
2941.93;2.34
2942.17;2.34
2942.41;2.35
2942.65;2.35
2942.89;2.35
2943.13;2.35
2943.37;2.35
2943.61;2.35
2943.85;2.35
2944.09;2.35
2944.34;2.35
2944.58;2.36
2944.82;2.36
2945.06;2.36
2945.30;2.36
2945.54;2.36
2945.78;2.36
2946.02;2.36
2946.26;2.36
2946.51;2.36
2946.75;2.36
2946.99;2.36
2947.23;2.37
2947.47;2.37
2947.71;2.37
2947.95;2.37
2948.19;2.37
2948.43;2.37
2948.67;2.37
2948.92;2.37
2949.16;2.37
2949.40;2.37
2949.64;2.37
2949.88;2.37
2950.12;2.37
2950.36;2.37
2950.60;2.37
2950.84;2.37
2951.09;2.37
2951.33;2.38
2951.57;2.38
2951.81;2.38
2952.05;2.38
2952.29;2.38
2952.53;2.38
2952.77;2.38
2953.01;2.38
2953.25;2.38
2953.50;2.38
2953.74;2.38
2953.98;2.38
2954.22;2.38
2954.46;2.38
2954.70;2.38
2954.94;2.38
2955.18;2.38
2955.42;2.38
2955.67;2.38
2955.91;2.38
2956.15;2.39
2956.39;2.39
2956.63;2.39
2956.87;2.39
2957.11;2.39
2957.35;2.39
2957.59;2.39
2957.83;2.39
2958.08;2.39
2958.32;2.39
2958.56;2.39
2958.80;2.39
2959.04;2.39
2959.28;2.39
2959.52;2.39
2959.76;2.39
2960.00;2.39
2960.25;2.39
2960.49;2.39
2960.73;2.39
2960.97;2.39
2961.21;2.39
2961.45;2.39
2961.69;2.40
2961.93;2.40
2962.17;2.40
2962.42;2.40
2962.66;2.40
2962.90;2.40
2963.14;2.40
2963.38;2.40
2963.62;2.40
2963.86;2.40
2964.10;2.40
2964.34;2.40
2964.58;2.40
2964.83;2.40
2965.07;2.40
2965.31;2.40
2965.55;2.40
2965.79;2.40
2966.03;2.40
2966.27;2.40
2966.51;2.40
2966.75;2.41
2967.00;2.41
2967.24;2.41
2967.48;2.41
2967.72;2.41
2967.96;2.41
2968.20;2.41
2968.44;2.41
2968.68;2.41
2968.92;2.42
2969.17;2.42
2969.41;2.41
2969.65;2.41
2969.89;2.41
2970.13;2.41
2970.37;2.41
2970.61;2.41
2970.85;2.41
2971.09;2.42
2971.33;2.42
2971.58;2.42
2971.82;2.42
2972.06;2.42
2972.30;2.42
2972.54;2.42
2972.78;2.42
2973.02;2.42
2973.26;2.42
2973.50;2.42
2973.75;2.42
2973.99;2.42
2974.23;2.42
2974.47;2.42
2974.71;2.43
2974.95;2.43
2975.19;2.43
2975.43;2.43
2975.67;2.43
2975.91;2.43
2976.16;2.43
2976.40;2.43
2976.64;2.43
2976.88;2.43
2977.12;2.43
2977.36;2.43
2977.60;2.43
2977.84;2.43
2978.08;2.43
2978.33;2.43
2978.57;2.43
2978.81;2.43
2979.05;2.43
2979.29;2.43
2979.53;2.43
2979.77;2.43
2980.01;2.43
2980.25;2.43
2980.49;2.43
2980.74;2.43
2980.98;2.43
2981.22;2.43
2981.46;2.43
2981.70;2.43
2981.94;2.43
2982.18;2.43
2982.42;2.43
2982.66;2.43
2982.91;2.43
2983.15;2.43
2983.39;2.43
2983.63;2.43
2983.87;2.43
2984.11;2.43
2984.35;2.43
2984.59;2.43
2984.83;2.43
2985.08;2.43
2985.32;2.43
2985.56;2.43
2985.80;2.43
2986.04;2.43
2986.28;2.43
2986.52;2.43
2986.76;2.43
2987.00;2.43
2987.24;2.43
2987.49;2.42
2987.73;2.42
2987.97;2.42
2988.21;2.43
2988.45;2.43
2988.69;2.43
2988.93;2.42
2989.17;2.42
2989.41;2.42
2989.66;2.42
2989.90;2.42
2990.14;2.42
2990.38;2.42
2990.62;2.42
2990.86;2.42
2991.10;2.42
2991.34;2.42
2991.58;2.42
2991.82;2.42
2992.07;2.42
2992.31;2.42
2992.55;2.41
2992.79;2.41
2993.03;2.41
2993.27;2.41
2993.51;2.41
2993.75;2.41
2993.99;2.41
2994.24;2.41
2994.48;2.41
2994.72;2.41
2994.96;2.41
2995.20;2.40
2995.44;2.40
2995.68;2.40
2995.92;2.40
2996.16;2.40
2996.41;2.40
2996.65;2.40
2996.89;2.40
2997.13;2.40
2997.37;2.40
2997.61;2.39
2997.85;2.39
2998.09;2.39
2998.33;2.39
2998.57;2.39
2998.82;2.39
2999.06;2.39
2999.30;2.39
2999.54;2.39
2999.78;2.39
3000.02;2.39
3000.26;2.39
3000.50;2.39
3000.74;2.39
3000.99;2.39
3001.23;2.38
3001.47;2.38
3001.71;2.38
3001.95;2.38
3002.19;2.38
3002.43;2.38
3002.67;2.38
3002.91;2.38
3003.15;2.38
3003.40;2.38
3003.64;2.38
3003.88;2.38
3004.12;2.38
3004.36;2.38
3004.60;2.38
3004.84;2.38
3005.08;2.38
3005.32;2.38
3005.57;2.38
3005.81;2.38
3006.05;2.38
3006.29;2.37
3006.53;2.37
3006.77;2.37
3007.01;2.37
3007.25;2.37
3007.49;2.38
3007.73;2.38
3007.98;2.38
3008.22;2.38
3008.46;2.38
3008.70;2.38
3008.94;2.38
3009.18;2.38
3009.42;2.38
3009.66;2.38
3009.90;2.38
3010.15;2.38
3010.39;2.38
3010.63;2.38
3010.87;2.38
3011.11;2.38
3011.35;2.38
3011.59;2.38
3011.83;2.38
3012.07;2.38
3012.32;2.38
3012.56;2.38
3012.80;2.38
3013.04;2.38
3013.28;2.38
3013.52;2.38
3013.76;2.38
3014.00;2.38
3014.24;2.38
3014.48;2.38
3014.73;2.38
3014.97;2.38
3015.21;2.38
3015.45;2.38
3015.69;2.39
3015.93;2.39
3016.17;2.39
3016.41;2.39
3016.65;2.39
3016.90;2.38
3017.14;2.38
3017.38;2.38
3017.62;2.38
3017.86;2.38
3018.10;2.38
3018.34;2.38
3018.58;2.38
3018.82;2.38
3019.06;2.38
3019.31;2.38
3019.55;2.38
3019.79;2.38
3020.03;2.38
3020.27;2.38
3020.51;2.38
3020.75;2.38
3020.99;2.38
3021.23;2.38
3021.48;2.38
3021.72;2.38
3021.96;2.38
3022.20;2.38
3022.44;2.38
3022.68;2.38
3022.92;2.38
3023.16;2.38
3023.40;2.38
3023.65;2.38
3023.89;2.37
3024.13;2.37
3024.37;2.37
3024.61;2.37
3024.85;2.37
3025.09;2.37
3025.33;2.37
3025.57;2.37
3025.81;2.37
3026.06;2.37
3026.30;2.37
3026.54;2.37
3026.78;2.37
3027.02;2.37
3027.26;2.37
3027.50;2.37
3027.74;2.37
3027.98;2.37
3028.23;2.37
3028.47;2.37
3028.71;2.37
3028.95;2.37
3029.19;2.37
3029.43;2.37
3029.67;2.37
3029.91;2.37
3030.15;2.37
3030.39;2.37
3030.64;2.37
3030.88;2.37
3031.12;2.37
3031.36;2.37
3031.60;2.37
3031.84;2.37
3032.08;2.37
3032.32;2.37
3032.56;2.37
3032.81;2.37
3033.05;2.37
3033.29;2.38
3033.53;2.38
3033.77;2.38
3034.01;2.38
3034.25;2.38
3034.49;2.38
3034.73;2.38
3034.98;2.38
3035.22;2.38
3035.46;2.38
3035.70;2.38
3035.94;2.39
3036.18;2.39
3036.42;2.39
3036.66;2.39
3036.90;2.39
3037.14;2.39
3037.39;2.39
3037.63;2.39
3037.87;2.39
3038.11;2.39
3038.35;2.39
3038.59;2.39
3038.83;2.39
3039.07;2.39
3039.31;2.39
3039.56;2.39
3039.80;2.39
3040.04;2.39
3040.28;2.39
3040.52;2.40
3040.76;2.40
3041.00;2.40
3041.24;2.40
3041.48;2.40
3041.72;2.40
3041.97;2.40
3042.21;2.40
3042.45;2.40
3042.69;2.40
3042.93;2.41
3043.17;2.41
3043.41;2.41
3043.65;2.41
3043.89;2.41
3044.14;2.41
3044.38;2.41
3044.62;2.42
3044.86;2.42
3045.10;2.42
3045.34;2.42
3045.58;2.42
3045.82;2.43
3046.06;2.43
3046.30;2.43
3046.55;2.43
3046.79;2.43
3047.03;2.43
3047.27;2.43
3047.51;2.43
3047.75;2.44
3047.99;2.44
3048.23;2.44
3048.47;2.44
3048.72;2.44
3048.96;2.44
3049.20;2.45
3049.44;2.45
3049.68;2.45
3049.92;2.45
3050.16;2.45
3050.40;2.45
3050.64;2.45
3050.89;2.45
3051.13;2.46
3051.37;2.46
3051.61;2.46
3051.85;2.46
3052.09;2.46
3052.33;2.46
3052.57;2.46
3052.81;2.46
3053.05;2.47
3053.30;2.47
3053.54;2.47
3053.78;2.47
3054.02;2.47
3054.26;2.47
3054.50;2.48
3054.74;2.48
3054.98;2.48
3055.22;2.48
3055.47;2.48
3055.71;2.48
3055.95;2.48
3056.19;2.48
3056.43;2.48
3056.67;2.48
3056.91;2.49
3057.15;2.49
3057.39;2.49
3057.63;2.49
3057.88;2.49
3058.12;2.49
3058.36;2.49
3058.60;2.49
3058.84;2.49
3059.08;2.49
3059.32;2.49
3059.56;2.50
3059.80;2.50
3060.05;2.50
3060.29;2.50
3060.53;2.50
3060.77;2.51
3061.01;2.51
3061.25;2.51
3061.49;2.51
3061.73;2.51
3061.97;2.51
3062.22;2.51
3062.46;2.51
3062.70;2.51
3062.94;2.51
3063.18;2.51
3063.42;2.51
3063.66;2.51
3063.90;2.51
3064.14;2.51
3064.38;2.52
3064.63;2.52
3064.87;2.52
3065.11;2.52
3065.35;2.52
3065.59;2.52
3065.83;2.52
3066.07;2.53
3066.31;2.53
3066.55;2.53
3066.80;2.53
3067.04;2.53
3067.28;2.54
3067.52;2.54
3067.76;2.54
3068.00;2.54
3068.24;2.54
3068.48;2.54
3068.72;2.54
3068.96;2.54
3069.21;2.55
3069.45;2.55
3069.69;2.55
3069.93;2.55
3070.17;2.55
3070.41;2.55
3070.65;2.55
3070.89;2.56
3071.13;2.56
3071.38;2.56
3071.62;2.56
3071.86;2.56
3072.10;2.56
3072.34;2.56
3072.58;2.56
3072.82;2.56
3073.06;2.56
3073.30;2.57
3073.54;2.57
3073.79;2.57
3074.03;2.57
3074.27;2.57
3074.51;2.57
3074.75;2.57
3074.99;2.57
3075.23;2.57
3075.47;2.57
3075.71;2.57
3075.96;2.58
3076.20;2.58
3076.44;2.58
3076.68;2.58
3076.92;2.58
3077.16;2.59
3077.40;2.59
3077.64;2.59
3077.88;2.59
3078.13;2.59
3078.37;2.59
3078.61;2.59
3078.85;2.59
3079.09;2.59
3079.33;2.59
3079.57;2.59
3079.81;2.60
3080.05;2.60
3080.29;2.60
3080.54;2.60
3080.78;2.60
3081.02;2.60
3081.26;2.60
3081.50;2.60
3081.74;2.60
3081.98;2.60
3082.22;2.60
3082.46;2.60
3082.71;2.60
3082.95;2.61
3083.19;2.61
3083.43;2.61
3083.67;2.61
3083.91;2.62
3084.15;2.62
3084.39;2.62
3084.63;2.62
3084.88;2.62
3085.12;2.62
3085.36;2.62
3085.60;2.63
3085.84;2.63
3086.08;2.63
3086.32;2.63
3086.56;2.63
3086.80;2.63
3087.04;2.63
3087.29;2.63
3087.53;2.63
3087.77;2.63
3088.01;2.63
3088.25;2.63
3088.49;2.63
3088.73;2.63
3088.97;2.63
3089.21;2.63
3089.46;2.64
3089.70;2.64
3089.94;2.64
3090.18;2.64
3090.42;2.64
3090.66;2.64
3090.90;2.64
3091.14;2.65
3091.38;2.65
3091.62;2.65
3091.87;2.65
3092.11;2.65
3092.35;2.65
3092.59;2.65
3092.83;2.65
3093.07;2.65
3093.31;2.65
3093.55;2.66
3093.79;2.66
3094.04;2.66
3094.28;2.66
3094.52;2.66
3094.76;2.66
3095.00;2.66
3095.24;2.66
3095.48;2.66
3095.72;2.66
3095.96;2.66
3096.20;2.66
3096.45;2.66
3096.69;2.66
3096.93;2.66
3097.17;2.66
3097.41;2.66
3097.65;2.66
3097.89;2.66
3098.13;2.66
3098.37;2.66
3098.62;2.67
3098.86;2.67
3099.10;2.67
3099.34;2.67
3099.58;2.67
3099.82;2.68
3100.06;2.68
3100.30;2.68
3100.54;2.68
3100.78;2.68
3101.03;2.68
3101.27;2.68
3101.51;2.69
3101.75;2.69
3101.99;2.69
3102.23;2.69
3102.47;2.69
3102.71;2.69
3102.95;2.69
3103.20;2.69
3103.44;2.69
3103.68;2.69
3103.92;2.69
3104.16;2.69
3104.40;2.69
3104.64;2.69
3104.88;2.69
3105.12;2.70
3105.37;2.70
3105.61;2.70
3105.85;2.70
3106.09;2.70
3106.33;2.70
3106.57;2.70
3106.81;2.70
3107.05;2.71
3107.29;2.71
3107.53;2.71
3107.78;2.71
3108.02;2.71
3108.26;2.71
3108.50;2.71
3108.74;2.71
3108.98;2.71
3109.22;2.71
3109.46;2.71
3109.70;2.71
3109.95;2.71
3110.19;2.71
3110.43;2.71
3110.67;2.71
3110.91;2.71
3111.15;2.71
3111.39;2.72
3111.63;2.72
3111.87;2.72
3112.12;2.72
3112.36;2.72
3112.60;2.72
3112.84;2.72
3113.08;2.72
3113.32;2.72
3113.56;2.72
3113.80;2.72
3114.04;2.72
3114.28;2.73
3114.53;2.73
3114.77;2.73
3115.01;2.73
3115.25;2.73
3115.49;2.73
3115.73;2.74
3115.97;2.74
3116.21;2.74
3116.45;2.74
3116.70;2.74
3116.94;2.74
3117.18;2.74
3117.42;2.74
3117.66;2.74
3117.90;2.74
3118.14;2.74
3118.38;2.74
3118.62;2.73
3118.86;2.73
3119.11;2.73
3119.35;2.73
3119.59;2.73
3119.83;2.73
3120.07;2.73
3120.31;2.73
3120.55;2.73
3120.79;2.73
3121.03;2.73
3121.28;2.73
3121.52;2.73
3121.76;2.73
3122.00;2.73
3122.24;2.73
3122.48;2.73
3122.72;2.73
3122.96;2.73
3123.20;2.73
3123.44;2.73
3123.69;2.73
3123.93;2.73
3124.17;2.73
3124.41;2.73
3124.65;2.73
3124.89;2.73
3125.13;2.73
3125.37;2.73
3125.61;2.73
3125.86;2.73
3126.10;2.73
3126.34;2.72
3126.58;2.72
3126.82;2.72
3127.06;2.72
3127.30;2.72
3127.54;2.72
3127.78;2.72
3128.03;2.72
3128.27;2.72
3128.51;2.72
3128.75;2.72
3128.99;2.72
3129.23;2.72
3129.47;2.72
3129.71;2.71
3129.95;2.71
3130.19;2.71
3130.44;2.71
3130.68;2.71
3130.92;2.71
3131.16;2.71
3131.40;2.71
3131.64;2.71
3131.88;2.71
3132.12;2.71
3132.36;2.71
3132.61;2.70
3132.85;2.70
3133.09;2.70
3133.33;2.70
3133.57;2.70
3133.81;2.69
3134.05;2.69
3134.29;2.69
3134.53;2.69
3134.77;2.68
3135.02;2.68
3135.26;2.68
3135.50;2.68
3135.74;2.68
3135.98;2.68
3136.22;2.68
3136.46;2.68
3136.70;2.68
3136.94;2.68
3137.19;2.68
3137.43;2.68
3137.67;2.68
3137.91;2.67
3138.15;2.67
3138.39;2.67
3138.63;2.67
3138.87;2.67
3139.11;2.67
3139.35;2.67
3139.60;2.67
3139.84;2.67
3140.08;2.67
3140.32;2.67
3140.56;2.67
3140.80;2.67
3141.04;2.67
3141.28;2.66
3141.52;2.66
3141.77;2.66
3142.01;2.66
3142.25;2.66
3142.49;2.66
3142.73;2.66
3142.97;2.65
3143.21;2.65
3143.45;2.65
3143.69;2.65
3143.94;2.65
3144.18;2.65
3144.42;2.65
3144.66;2.65
3144.90;2.65
3145.14;2.65
3145.38;2.65
3145.62;2.64
3145.86;2.64
3146.10;2.64
3146.35;2.64
3146.59;2.64
3146.83;2.64
3147.07;2.64
3147.31;2.63
3147.55;2.63
3147.79;2.63
3148.03;2.63
3148.27;2.63
3148.52;2.63
3148.76;2.63
3149.00;2.63
3149.24;2.63
3149.48;2.62
3149.72;2.62
3149.96;2.62
3150.20;2.62
3150.44;2.62
3150.68;2.61
3150.93;2.61
3151.17;2.61
3151.41;2.61
3151.65;2.61
3151.89;2.61
3152.13;2.61
3152.37;2.61
3152.61;2.61
3152.85;2.61
3153.10;2.61
3153.34;2.61
3153.58;2.61
3153.82;2.60
3154.06;2.60
3154.30;2.60
3154.54;2.60
3154.78;2.60
3155.02;2.60
3155.27;2.59
3155.51;2.59
3155.75;2.59
3155.99;2.59
3156.23;2.59
3156.47;2.59
3156.71;2.59
3156.95;2.58
3157.19;2.58
3157.43;2.58
3157.68;2.58
3157.92;2.58
3158.16;2.58
3158.40;2.58
3158.64;2.58
3158.88;2.58
3159.12;2.58
3159.36;2.57
3159.60;2.57
3159.85;2.57
3160.09;2.57
3160.33;2.57
3160.57;2.57
3160.81;2.57
3161.05;2.57
3161.29;2.57
3161.53;2.56
3161.77;2.56
3162.01;2.56
3162.26;2.56
3162.50;2.56
3162.74;2.56
3162.98;2.56
3163.22;2.56
3163.46;2.56
3163.70;2.56
3163.94;2.56
3164.18;2.55
3164.43;2.55
3164.67;2.55
3164.91;2.55
3165.15;2.55
3165.39;2.55
3165.63;2.55
3165.87;2.55
3166.11;2.55
3166.35;2.55
3166.59;2.55
3166.84;2.55
3167.08;2.54
3167.32;2.54
3167.56;2.54
3167.80;2.54
3168.04;2.54
3168.28;2.54
3168.52;2.54
3168.76;2.54
3169.01;2.54
3169.25;2.54
3169.49;2.54
3169.73;2.54
3169.97;2.54
3170.21;2.54
3170.45;2.54
3170.69;2.54
3170.93;2.54
3171.18;2.53
3171.42;2.53
3171.66;2.53
3171.90;2.53
3172.14;2.53
3172.38;2.53
3172.62;2.53
3172.86;2.53
3173.10;2.53
3173.34;2.53
3173.59;2.52
3173.83;2.52
3174.07;2.52
3174.31;2.52
3174.55;2.52
3174.79;2.52
3175.03;2.52
3175.27;2.52
3175.51;2.52
3175.76;2.52
3176.00;2.52
3176.24;2.52
3176.48;2.52
3176.72;2.52
3176.96;2.52
3177.20;2.52
3177.44;2.52
3177.68;2.52
3177.93;2.52
3178.17;2.52
3178.41;2.52
3178.65;2.52
3178.89;2.51
3179.13;2.51
3179.37;2.51
3179.61;2.51
3179.85;2.51
3180.09;2.51
3180.34;2.51
3180.58;2.51
3180.82;2.51
3181.06;2.51
3181.30;2.51
3181.54;2.51
3181.78;2.51
3182.02;2.51
3182.26;2.51
3182.51;2.51
3182.75;2.51
3182.99;2.51
3183.23;2.51
3183.47;2.51
3183.71;2.51
3183.95;2.51
3184.19;2.51
3184.43;2.51
3184.67;2.51
3184.92;2.51
3185.16;2.51
3185.40;2.51
3185.64;2.51
3185.88;2.51
3186.12;2.51
3186.36;2.51
3186.60;2.50
3186.84;2.50
3187.09;2.50
3187.33;2.50
3187.57;2.50
3187.81;2.51
3188.05;2.51
3188.29;2.51
3188.53;2.51
3188.77;2.51
3189.01;2.51
3189.25;2.50
3189.50;2.50
3189.74;2.50
3189.98;2.50
3190.22;2.50
3190.46;2.50
3190.70;2.50
3190.94;2.50
3191.18;2.50
3191.42;2.50
3191.67;2.50
3191.91;2.50
3192.15;2.50
3192.39;2.50
3192.63;2.50
3192.87;2.50
3193.11;2.50
3193.35;2.50
3193.59;2.50
3193.83;2.50
3194.08;2.50
3194.32;2.50
3194.56;2.50
3194.80;2.50
3195.04;2.49
3195.28;2.49
3195.52;2.49
3195.76;2.49
3196.00;2.49
3196.25;2.49
3196.49;2.49
3196.73;2.49
3196.97;2.49
3197.21;2.49
3197.45;2.49
3197.69;2.49
3197.93;2.49
3198.17;2.49
3198.42;2.49
3198.66;2.49
3198.90;2.49
3199.14;2.49
3199.38;2.49
3199.62;2.49
3199.86;2.49
3200.10;2.49
3200.34;2.49
3200.58;2.49
3200.83;2.49
3201.07;2.49
3201.31;2.49
3201.55;2.49
3201.79;2.49
3202.03;2.49
3202.27;2.49
3202.51;2.49
3202.75;2.49
3203.00;2.49
3203.24;2.48
3203.48;2.48
3203.72;2.48
3203.96;2.48
3204.20;2.48
3204.44;2.48
3204.68;2.48
3204.92;2.48
3205.17;2.48
3205.41;2.48
3205.65;2.48
3205.89;2.48
3206.13;2.48
3206.37;2.48
3206.61;2.47
3206.85;2.47
3207.09;2.47
3207.33;2.47
3207.58;2.47
3207.82;2.47
3208.06;2.47
3208.30;2.47
3208.54;2.47
3208.78;2.47
3209.02;2.47
3209.26;2.47
3209.50;2.47
3209.75;2.47
3209.99;2.47
3210.23;2.47
3210.47;2.47
3210.71;2.47
3210.95;2.47
3211.19;2.47
3211.43;2.47
3211.67;2.47
3211.91;2.47
3212.16;2.47
3212.40;2.47
3212.64;2.47
3212.88;2.47
3213.12;2.47
3213.36;2.47
3213.60;2.47
3213.84;2.47
3214.08;2.47
3214.33;2.47
3214.57;2.47
3214.81;2.47
3215.05;2.47
3215.29;2.47
3215.53;2.47
3215.77;2.47
3216.01;2.46
3216.25;2.47
3216.49;2.47
3216.74;2.47
3216.98;2.47
3217.22;2.47
3217.46;2.47
3217.70;2.47
3217.94;2.47
3218.18;2.47
3218.42;2.47
3218.66;2.47
3218.91;2.47
3219.15;2.47
3219.39;2.47
3219.63;2.47
3219.87;2.47
3220.11;2.47
3220.35;2.47
3220.59;2.47
3220.83;2.47
3221.08;2.47
3221.32;2.47
3221.56;2.47
3221.80;2.47
3222.04;2.47
3222.28;2.47
3222.52;2.47
3222.76;2.47
3223.00;2.47
3223.24;2.47
3223.49;2.47
3223.73;2.47
3223.97;2.47
3224.21;2.47
3224.45;2.47
3224.69;2.47
3224.93;2.47
3225.17;2.47
3225.41;2.47
3225.66;2.47
3225.90;2.47
3226.14;2.47
3226.38;2.47
3226.62;2.48
3226.86;2.48
3227.10;2.48
3227.34;2.48
3227.58;2.48
3227.82;2.48
3228.07;2.48
3228.31;2.48
3228.55;2.48
3228.79;2.48
3229.03;2.48
3229.27;2.48
3229.51;2.48
3229.75;2.48
3229.99;2.48
3230.24;2.48
3230.48;2.48
3230.72;2.48
3230.96;2.48
3231.20;2.48
3231.44;2.48
3231.68;2.48
3231.92;2.48
3232.16;2.48
3232.41;2.48
3232.65;2.48
3232.89;2.48
3233.13;2.48
3233.37;2.49
3233.61;2.49
3233.85;2.49
3234.09;2.49
3234.33;2.49
3234.57;2.49
3234.82;2.49
3235.06;2.49
3235.30;2.48
3235.54;2.48
3235.78;2.48
3236.02;2.48
3236.26;2.48
3236.50;2.48
3236.74;2.48
3236.99;2.48
3237.23;2.48
3237.47;2.48
3237.71;2.48
3237.95;2.48
3238.19;2.48
3238.43;2.48
3238.67;2.48
3238.91;2.48
3239.15;2.49
3239.40;2.49
3239.64;2.49
3239.88;2.49
3240.12;2.49
3240.36;2.49
3240.60;2.48
3240.84;2.48
3241.08;2.49
3241.32;2.49
3241.57;2.49
3241.81;2.49
3242.05;2.49
3242.29;2.49
3242.53;2.49
3242.77;2.49
3243.01;2.49
3243.25;2.48
3243.49;2.48
3243.73;2.48
3243.98;2.48
3244.22;2.48
3244.46;2.48
3244.70;2.48
3244.94;2.48
3245.18;2.48
3245.42;2.48
3245.66;2.48
3245.90;2.48
3246.15;2.49
3246.39;2.49
3246.63;2.49
3246.87;2.49
3247.11;2.49
3247.35;2.49
3247.59;2.49
3247.83;2.49
3248.07;2.49
3248.32;2.49
3248.56;2.49
3248.80;2.49
3249.04;2.49
3249.28;2.49
3249.52;2.49
3249.76;2.49
3250.00;2.49
3250.24;2.49
3250.48;2.49
3250.73;2.49
3250.97;2.49
3251.21;2.49
3251.45;2.49
3251.69;2.50
3251.93;2.50
3252.17;2.50
3252.41;2.50
3252.65;2.50
3252.90;2.50
3253.14;2.50
3253.38;2.50
3253.62;2.50
3253.86;2.50
3254.10;2.50
3254.34;2.51
3254.58;2.51
3254.82;2.51
3255.06;2.51
3255.31;2.51
3255.55;2.51
3255.79;2.51
3256.03;2.52
3256.27;2.52
3256.51;2.52
3256.75;2.52
3256.99;2.52
3257.23;2.52
3257.48;2.52
3257.72;2.52
3257.96;2.52
3258.20;2.52
3258.44;2.52
3258.68;2.53
3258.92;2.53
3259.16;2.53
3259.40;2.53
3259.65;2.53
3259.89;2.53
3260.13;2.53
3260.37;2.53
3260.61;2.53
3260.85;2.53
3261.09;2.53
3261.33;2.53
3261.57;2.53
3261.81;2.54
3262.06;2.54
3262.30;2.54
3262.54;2.54
3262.78;2.54
3263.02;2.54
3263.26;2.54
3263.50;2.54
3263.74;2.54
3263.98;2.54
3264.23;2.54
3264.47;2.54
3264.71;2.54
3264.95;2.54
3265.19;2.54
3265.43;2.54
3265.67;2.54
3265.91;2.54
3266.15;2.55
3266.39;2.55
3266.64;2.55
3266.88;2.55
3267.12;2.55
3267.36;2.55
3267.60;2.55
3267.84;2.55
3268.08;2.55
3268.32;2.55
3268.56;2.55
3268.81;2.55
3269.05;2.55
3269.29;2.55
3269.53;2.55
3269.77;2.55
3270.01;2.55
3270.25;2.55
3270.49;2.55
3270.73;2.55
3270.98;2.55
3271.22;2.55
3271.46;2.55
3271.70;2.55
3271.94;2.55
3272.18;2.55
3272.42;2.55
3272.66;2.55
3272.90;2.55
3273.14;2.55
3273.39;2.55
3273.63;2.55
3273.87;2.55
3274.11;2.55
3274.35;2.55
3274.59;2.55
3274.83;2.55
3275.07;2.55
3275.31;2.55
3275.56;2.55
3275.80;2.55
3276.04;2.55
3276.28;2.55
3276.52;2.55
3276.76;2.55
3277.00;2.55
3277.24;2.55
3277.48;2.55
3277.72;2.55
3277.97;2.55
3278.21;2.56
3278.45;2.56
3278.69;2.56
3278.93;2.56
3279.17;2.56
3279.41;2.56
3279.65;2.56
3279.89;2.56
3280.14;2.56
3280.38;2.56
3280.62;2.56
3280.86;2.56
3281.10;2.56
3281.34;2.56
3281.58;2.56
3281.82;2.56
3282.06;2.56
3282.30;2.56
3282.55;2.57
3282.79;2.57
3283.03;2.57
3283.27;2.57
3283.51;2.57
3283.75;2.58
3283.99;2.58
3284.23;2.58
3284.47;2.58
3284.72;2.58
3284.96;2.58
3285.20;2.58
3285.44;2.58
3285.68;2.58
3285.92;2.58
3286.16;2.58
3286.40;2.58
3286.64;2.58
3286.89;2.59
3287.13;2.59
3287.37;2.59
3287.61;2.59
3287.85;2.59
3288.09;2.59
3288.33;2.59
3288.57;2.59
3288.81;2.59
3289.05;2.59
3289.30;2.59
3289.54;2.59
3289.78;2.60
3290.02;2.60
3290.26;2.60
3290.50;2.60
3290.74;2.60
3290.98;2.60
3291.22;2.60
3291.47;2.60
3291.71;2.60
3291.95;2.60
3292.19;2.60
3292.43;2.60
3292.67;2.60
3292.91;2.60
3293.15;2.60
3293.39;2.60
3293.63;2.60
3293.88;2.60
3294.12;2.61
3294.36;2.61
3294.60;2.61
3294.84;2.60
3295.08;2.60
3295.32;2.60
3295.56;2.60
3295.80;2.60
3296.05;2.60
3296.29;2.60
3296.53;2.60
3296.77;2.60
3297.01;2.60
3297.25;2.60
3297.49;2.60
3297.73;2.60
3297.97;2.60
3298.22;2.60
3298.46;2.60
3298.70;2.60
3298.94;2.60
3299.18;2.59
3299.42;2.59
3299.66;2.59
3299.90;2.59
3300.14;2.59
3300.38;2.59
3300.63;2.58
3300.87;2.58
3301.11;2.58
3301.35;2.58
3301.59;2.58
3301.83;2.58
3302.07;2.58
3302.31;2.58
3302.55;2.58
3302.80;2.58
3303.04;2.58
3303.28;2.57
3303.52;2.57
3303.76;2.57
3304.00;2.57
3304.24;2.57
3304.48;2.57
3304.72;2.57
3304.96;2.56
3305.21;2.56
3305.45;2.56
3305.69;2.56
3305.93;2.56
3306.17;2.55
3306.41;2.55
3306.65;2.55
3306.89;2.55
3307.13;2.55
3307.38;2.54
3307.62;2.54
3307.86;2.54
3308.10;2.54
3308.34;2.53
3308.58;2.53
3308.82;2.53
3309.06;2.53
3309.30;2.53
3309.54;2.52
3309.79;2.52
3310.03;2.52
3310.27;2.52
3310.51;2.52
3310.75;2.52
3310.99;2.52
3311.23;2.52
3311.47;2.52
3311.71;2.51
3311.96;2.51
3312.20;2.51
3312.44;2.51
3312.68;2.51
3312.92;2.51
3313.16;2.51
3313.40;2.50
3313.64;2.50
3313.88;2.50
3314.13;2.50
3314.37;2.50
3314.61;2.50
3314.85;2.49
3315.09;2.49
3315.33;2.49
3315.57;2.49
3315.81;2.49
3316.05;2.49
3316.29;2.48
3316.54;2.48
3316.78;2.48
3317.02;2.48
3317.26;2.48
3317.50;2.48
3317.74;2.48
3317.98;2.48
3318.22;2.47
3318.46;2.47
3318.71;2.47
3318.95;2.47
3319.19;2.47
3319.43;2.47
3319.67;2.47
3319.91;2.47
3320.15;2.46
3320.39;2.46
3320.63;2.46
3320.88;2.46
3321.12;2.46
3321.36;2.46
3321.60;2.46
3321.84;2.46
3322.08;2.45
3322.32;2.45
3322.56;2.45
3322.80;2.45
3323.04;2.45
3323.29;2.45
3323.53;2.45
3323.77;2.45
3324.01;2.44
3324.25;2.44
3324.49;2.44
3324.73;2.44
3324.97;2.44
3325.21;2.44
3325.46;2.44
3325.70;2.44
3325.94;2.44
3326.18;2.44
3326.42;2.44
3326.66;2.43
3326.90;2.43
3327.14;2.43
3327.38;2.43
3327.62;2.43
3327.87;2.43
3328.11;2.43
3328.35;2.43
3328.59;2.43
3328.83;2.43
3329.07;2.43
3329.31;2.43
3329.55;2.43
3329.79;2.43
3330.04;2.43
3330.28;2.42
3330.52;2.42
3330.76;2.42
3331.00;2.42
3331.24;2.42
3331.48;2.42
3331.72;2.42
3331.96;2.42
3332.20;2.42
3332.45;2.42
3332.69;2.42
3332.93;2.42
3333.17;2.42
3333.41;2.42
3333.65;2.42
3333.89;2.42
3334.13;2.42
3334.37;2.42
3334.62;2.42
3334.86;2.42
3335.10;2.42
3335.34;2.42
3335.58;2.42
3335.82;2.41
3336.06;2.41
3336.30;2.41
3336.54;2.41
3336.78;2.41
3337.03;2.41
3337.27;2.41
3337.51;2.41
3337.75;2.41
3337.99;2.41
3338.23;2.41
3338.47;2.41
3338.71;2.41
3338.95;2.41
3339.20;2.41
3339.44;2.41
3339.68;2.41
3339.92;2.41
3340.16;2.41
3340.40;2.41
3340.64;2.41
3340.88;2.42
3341.12;2.42
3341.37;2.42
3341.61;2.42
3341.85;2.42
3342.09;2.42
3342.33;2.42
3342.57;2.42
3342.81;2.42
3343.05;2.42
3343.29;2.42
3343.53;2.42
3343.78;2.42
3344.02;2.42
3344.26;2.42
3344.50;2.42
3344.74;2.42
3344.98;2.42
3345.22;2.42
3345.46;2.43
3345.70;2.43
3345.95;2.43
3346.19;2.43
3346.43;2.43
3346.67;2.43
3346.91;2.43
3347.15;2.43
3347.39;2.43
3347.63;2.43
3347.87;2.43
3348.12;2.43
3348.36;2.44
3348.60;2.44
3348.84;2.44
3349.08;2.44
3349.32;2.44
3349.56;2.44
3349.80;2.44
3350.04;2.44
3350.28;2.44
3350.53;2.44
3350.77;2.44
3351.01;2.44
3351.25;2.44
3351.49;2.45
3351.73;2.45
3351.97;2.45
3352.21;2.45
3352.45;2.45
3352.70;2.45
3352.94;2.45
3353.18;2.45
3353.42;2.46
3353.66;2.46
3353.90;2.46
3354.14;2.46
3354.38;2.46
3354.62;2.46
3354.86;2.46
3355.11;2.46
3355.35;2.46
3355.59;2.46
3355.83;2.46
3356.07;2.46
3356.31;2.46
3356.55;2.46
3356.79;2.46
3357.03;2.46
3357.28;2.46
3357.52;2.46
3357.76;2.46
3358.00;2.46
3358.24;2.46
3358.48;2.46
3358.72;2.47
3358.96;2.47
3359.20;2.47
3359.44;2.47
3359.69;2.47
3359.93;2.47
3360.17;2.47
3360.41;2.47
3360.65;2.47
3360.89;2.47
3361.13;2.47
3361.37;2.47
3361.61;2.47
3361.86;2.47
3362.10;2.47
3362.34;2.47
3362.58;2.47
3362.82;2.47
3363.06;2.47
3363.30;2.47
3363.54;2.46
3363.78;2.46
3364.03;2.46
3364.27;2.46
3364.51;2.46
3364.75;2.46
3364.99;2.46
3365.23;2.46
3365.47;2.45
3365.71;2.45
3365.95;2.45
3366.19;2.45
3366.44;2.45
3366.68;2.45
3366.92;2.45
3367.16;2.45
3367.40;2.45
3367.64;2.45
3367.88;2.45
3368.12;2.45
3368.36;2.44
3368.61;2.44
3368.85;2.44
3369.09;2.44
3369.33;2.44
3369.57;2.44
3369.81;2.44
3370.05;2.43
3370.29;2.43
3370.53;2.43
3370.77;2.43
3371.02;2.43
3371.26;2.43
3371.50;2.43
3371.74;2.43
3371.98;2.42
3372.22;2.42
3372.46;2.42
3372.70;2.42
3372.94;2.42
3373.19;2.41
3373.43;2.41
3373.67;2.41
3373.91;2.41
3374.15;2.41
3374.39;2.41
3374.63;2.40
3374.87;2.40
3375.11;2.40
3375.35;2.40
3375.60;2.40
3375.84;2.40
3376.08;2.40
3376.32;2.40
3376.56;2.40
3376.80;2.40
3377.04;2.40
3377.28;2.40
3377.52;2.40
3377.77;2.40
3378.01;2.40
3378.25;2.39
3378.49;2.39
3378.73;2.39
3378.97;2.39
3379.21;2.39
3379.45;2.39
3379.69;2.39
3379.94;2.39
3380.18;2.39
3380.42;2.39
3380.66;2.39
3380.90;2.38
3381.14;2.38
3381.38;2.38
3381.62;2.38
3381.86;2.38
3382.10;2.38
3382.35;2.38
3382.59;2.38
3382.83;2.38
3383.07;2.38
3383.31;2.38
3383.55;2.38
3383.79;2.38
3384.03;2.38
3384.27;2.38
3384.52;2.37
3384.76;2.37
3385.00;2.37
3385.24;2.37
3385.48;2.37
3385.72;2.37
3385.96;2.38
3386.20;2.38
3386.44;2.38
3386.68;2.38
3386.93;2.38
3387.17;2.38
3387.41;2.38
3387.65;2.38
3387.89;2.38
3388.13;2.38
3388.37;2.37
3388.61;2.37
3388.85;2.37
3389.10;2.37
3389.34;2.37
3389.58;2.37
3389.82;2.37
3390.06;2.37
3390.30;2.37
3390.54;2.37
3390.78;2.37
3391.02;2.37
3391.27;2.37
3391.51;2.37
3391.75;2.37
3391.99;2.37
3392.23;2.37
3392.47;2.37
3392.71;2.37
3392.95;2.37
3393.19;2.37
3393.43;2.37
3393.68;2.37
3393.92;2.37
3394.16;2.37
3394.40;2.37
3394.64;2.37
3394.88;2.37
3395.12;2.37
3395.36;2.37
3395.60;2.37
3395.85;2.37
3396.09;2.37
3396.33;2.37
3396.57;2.37
3396.81;2.37
3397.05;2.37
3397.29;2.37
3397.53;2.37
3397.77;2.37
3398.01;2.37
3398.26;2.37
3398.50;2.37
3398.74;2.37
3398.98;2.37
3399.22;2.37
3399.46;2.37
3399.70;2.37
3399.94;2.37
3400.18;2.37
3400.43;2.37
3400.67;2.37
3400.91;2.37
3401.15;2.37
3401.39;2.37
3401.63;2.37
3401.87;2.37
3402.11;2.37
3402.35;2.37
3402.59;2.37
3402.84;2.37
3403.08;2.37
3403.32;2.37
3403.56;2.37
3403.80;2.37
3404.04;2.37
3404.28;2.37
3404.52;2.37
3404.76;2.37
3405.01;2.37
3405.25;2.37
3405.49;2.37
3405.73;2.37
3405.97;2.37
3406.21;2.37
3406.45;2.37
3406.69;2.38
3406.93;2.38
3407.18;2.38
3407.42;2.38
3407.66;2.38
3407.90;2.38
3408.14;2.38
3408.38;2.37
3408.62;2.37
3408.86;2.37
3409.10;2.37
3409.34;2.37
3409.59;2.37
3409.83;2.37
3410.07;2.37
3410.31;2.37
3410.55;2.38
3410.79;2.38
3411.03;2.38
3411.27;2.38
3411.51;2.38
3411.76;2.38
3412.00;2.38
3412.24;2.38
3412.48;2.38
3412.72;2.38
3412.96;2.38
3413.20;2.38
3413.44;2.38
3413.68;2.38
3413.93;2.38
3414.17;2.38
3414.41;2.38
3414.65;2.38
3414.89;2.37
3415.13;2.37
3415.37;2.37
3415.61;2.37
3415.85;2.37
3416.09;2.37
3416.34;2.37
3416.58;2.37
3416.82;2.37
3417.06;2.37
3417.30;2.37
3417.54;2.37
3417.78;2.37
3418.02;2.37
3418.26;2.37
3418.51;2.37
3418.75;2.37
3418.99;2.37
3419.23;2.37
3419.47;2.37
3419.71;2.37
3419.95;2.36
3420.19;2.36
3420.43;2.36
3420.67;2.36
3420.92;2.36
3421.16;2.36
3421.40;2.36
3421.64;2.36
3421.88;2.36
3422.12;2.36
3422.36;2.36
3422.60;2.36
3422.84;2.36
3423.09;2.36
3423.33;2.36
3423.57;2.36
3423.81;2.35
3424.05;2.35
3424.29;2.35
3424.53;2.35
3424.77;2.35
3425.01;2.35
3425.25;2.35
3425.50;2.35
3425.74;2.35
3425.98;2.35
3426.22;2.35
3426.46;2.35
3426.70;2.35
3426.94;2.34
3427.18;2.34
3427.42;2.34
3427.67;2.34
3427.91;2.34
3428.15;2.34
3428.39;2.34
3428.63;2.34
3428.87;2.34
3429.11;2.34
3429.35;2.34
3429.59;2.34
3429.83;2.34
3430.08;2.34
3430.32;2.34
3430.56;2.34
3430.80;2.34
3431.04;2.33
3431.28;2.33
3431.52;2.33
3431.76;2.33
3432.00;2.33
3432.25;2.33
3432.49;2.33
3432.73;2.33
3432.97;2.33
3433.21;2.33
3433.45;2.33
3433.69;2.33
3433.93;2.33
3434.17;2.33
3434.42;2.33
3434.66;2.33
3434.90;2.32
3435.14;2.32
3435.38;2.32
3435.62;2.32
3435.86;2.32
3436.10;2.32
3436.34;2.32
3436.58;2.32
3436.83;2.32
3437.07;2.32
3437.31;2.32
3437.55;2.32
3437.79;2.32
3438.03;2.32
3438.27;2.32
3438.51;2.32
3438.75;2.32
3439.00;2.32
3439.24;2.32
3439.48;2.32
3439.72;2.32
3439.96;2.32
3440.20;2.32
3440.44;2.32
3440.68;2.32
3440.92;2.32
3441.17;2.32
3441.41;2.32
3441.65;2.32
3441.89;2.32
3442.13;2.31
3442.37;2.31
3442.61;2.31
3442.85;2.31
3443.09;2.31
3443.33;2.31
3443.58;2.31
3443.82;2.31
3444.06;2.31
3444.30;2.31
3444.54;2.31
3444.78;2.31
3445.02;2.31
3445.26;2.31
3445.50;2.31
3445.75;2.31
3445.99;2.31
3446.23;2.31
3446.47;2.31
3446.71;2.31
3446.95;2.31
3447.19;2.31
3447.43;2.31
3447.67;2.31
3447.91;2.31
3448.16;2.31
3448.40;2.31
3448.64;2.31
3448.88;2.31
3449.12;2.31
3449.36;2.31
3449.60;2.31
3449.84;2.31
3450.08;2.31
3450.33;2.31
3450.57;2.31
3450.81;2.31
3451.05;2.31
3451.29;2.31
3451.53;2.31
3451.77;2.31
3452.01;2.31
3452.25;2.31
3452.49;2.31
3452.74;2.31
3452.98;2.31
3453.22;2.31
3453.46;2.31
3453.70;2.31
3453.94;2.31
3454.18;2.31
3454.42;2.31
3454.66;2.31
3454.91;2.32
3455.15;2.32
3455.39;2.32
3455.63;2.32
3455.87;2.31
3456.11;2.31
3456.35;2.31
3456.59;2.31
3456.83;2.31
3457.08;2.31
3457.32;2.31
3457.56;2.31
3457.80;2.31
3458.04;2.31
3458.28;2.31
3458.52;2.31
3458.76;2.31
3459.00;2.31
3459.24;2.31
3459.49;2.31
3459.73;2.31
3459.97;2.31
3460.21;2.31
3460.45;2.31
3460.69;2.31
3460.93;2.31
3461.17;2.31
3461.41;2.31
3461.66;2.31
3461.90;2.31
3462.14;2.31
3462.38;2.31
3462.62;2.31
3462.86;2.31
3463.10;2.31
3463.34;2.31
3463.58;2.31
3463.82;2.31
3464.07;2.31
3464.31;2.31
3464.55;2.31
3464.79;2.31
3465.03;2.31
3465.27;2.31
3465.51;2.31
3465.75;2.31
3465.99;2.31
3466.24;2.31
3466.48;2.31
3466.72;2.31
3466.96;2.31
3467.20;2.32
3467.44;2.32
3467.68;2.32
3467.92;2.32
3468.16;2.32
3468.41;2.32
3468.65;2.32
3468.89;2.32
3469.13;2.31
3469.37;2.31
3469.61;2.31
3469.85;2.31
3470.09;2.31
3470.33;2.31
3470.57;2.31
3470.82;2.31
3471.06;2.31
3471.30;2.32
3471.54;2.32
3471.78;2.32
3472.02;2.32
3472.26;2.32
3472.50;2.32
3472.74;2.32
3472.99;2.32
3473.23;2.32
3473.47;2.32
3473.71;2.32
3473.95;2.32
3474.19;2.32
3474.43;2.32
3474.67;2.32
3474.91;2.32
3475.15;2.32
3475.40;2.32
3475.64;2.32
3475.88;2.32
3476.12;2.32
3476.36;2.32
3476.60;2.32
3476.84;2.32
3477.08;2.32
3477.32;2.31
3477.57;2.31
3477.81;2.31
3478.05;2.31
3478.29;2.31
3478.53;2.31
3478.77;2.31
3479.01;2.31
3479.25;2.31
3479.49;2.31
3479.73;2.31
3479.98;2.31
3480.22;2.31
3480.46;2.31
3480.70;2.31
3480.94;2.31
3481.18;2.31
3481.42;2.31
3481.66;2.31
3481.90;2.31
3482.15;2.31
3482.39;2.31
3482.63;2.31
3482.87;2.31
3483.11;2.31
3483.35;2.31
3483.59;2.31
3483.83;2.31
3484.07;2.32
3484.32;2.32
3484.56;2.32
3484.80;2.31
3485.04;2.31
3485.28;2.31
3485.52;2.31
3485.76;2.31
3486.00;2.31
3486.24;2.31
3486.48;2.31
3486.73;2.31
3486.97;2.31
3487.21;2.31
3487.45;2.31
3487.69;2.31
3487.93;2.31
3488.17;2.31
3488.41;2.31
3488.65;2.31
3488.90;2.31
3489.14;2.31
3489.38;2.31
3489.62;2.30
3489.86;2.30
3490.10;2.30
3490.34;2.30
3490.58;2.30
3490.82;2.30
3491.06;2.30
3491.31;2.30
3491.55;2.30
3491.79;2.30
3492.03;2.30
3492.27;2.30
3492.51;2.30
3492.75;2.30
3492.99;2.30
3493.23;2.30
3493.48;2.30
3493.72;2.30
3493.96;2.30
3494.20;2.30
3494.44;2.30
3494.68;2.30
3494.92;2.30
3495.16;2.29
3495.40;2.29
3495.65;2.29
3495.89;2.29
3496.13;2.29
3496.37;2.29
3496.61;2.29
3496.85;2.29
3497.09;2.29
3497.33;2.29
3497.57;2.29
3497.81;2.29
3498.06;2.29
3498.30;2.29
3498.54;2.29
3498.78;2.29
3499.02;2.29
3499.26;2.29
3499.50;2.29
3499.74;2.29
3499.98;2.29
3500.23;2.28
3500.47;2.28
3500.71;2.28
3500.95;2.28
3501.19;2.28
3501.43;2.28
3501.67;2.28
3501.91;2.28
3502.15;2.28
3502.39;2.28
3502.64;2.28
3502.88;2.28
3503.12;2.28
3503.36;2.28
3503.60;2.28
3503.84;2.28
3504.08;2.28
3504.32;2.28
3504.56;2.28
3504.81;2.28
3505.05;2.28
3505.29;2.28
3505.53;2.28
3505.77;2.28
3506.01;2.28
3506.25;2.28
3506.49;2.28
3506.73;2.28
3506.98;2.28
3507.22;2.28
3507.46;2.27
3507.70;2.27
3507.94;2.27
3508.18;2.27
3508.42;2.27
3508.66;2.27
3508.90;2.27
3509.14;2.27
3509.39;2.27
3509.63;2.27
3509.87;2.27
3510.11;2.27
3510.35;2.27
3510.59;2.27
3510.83;2.27
3511.07;2.27
3511.31;2.27
3511.56;2.27
3511.80;2.27
3512.04;2.27
3512.28;2.26
3512.52;2.26
3512.76;2.26
3513.00;2.26
3513.24;2.26
3513.48;2.26
3513.72;2.26
3513.97;2.26
3514.21;2.26
3514.45;2.26
3514.69;2.26
3514.93;2.26
3515.17;2.26
3515.41;2.26
3515.65;2.26
3515.89;2.26
3516.14;2.26
3516.38;2.26
3516.62;2.26
3516.86;2.26
3517.10;2.26
3517.34;2.26
3517.58;2.26
3517.82;2.26
3518.06;2.26
3518.30;2.26
3518.55;2.26
3518.79;2.26
3519.03;2.26
3519.27;2.26
3519.51;2.26
3519.75;2.26
3519.99;2.26
3520.23;2.25
3520.47;2.25
3520.72;2.25
3520.96;2.25
3521.20;2.25
3521.44;2.25
3521.68;2.25
3521.92;2.25
3522.16;2.25
3522.40;2.25
3522.64;2.25
3522.89;2.25
3523.13;2.25
3523.37;2.25
3523.61;2.25
3523.85;2.25
3524.09;2.25
3524.33;2.25
3524.57;2.25
3524.81;2.25
3525.05;2.25
3525.30;2.25
3525.54;2.25
3525.78;2.25
3526.02;2.25
3526.26;2.25
3526.50;2.25
3526.74;2.25
3526.98;2.25
3527.22;2.25
3527.47;2.25
3527.71;2.25
3527.95;2.25
3528.19;2.25
3528.43;2.25
3528.67;2.25
3528.91;2.25
3529.15;2.25
3529.39;2.25
3529.63;2.25
3529.88;2.25
3530.12;2.25
3530.36;2.25
3530.60;2.25
3530.84;2.25
3531.08;2.25
3531.32;2.25
3531.56;2.25
3531.80;2.25
3532.05;2.25
3532.29;2.25
3532.53;2.25
3532.77;2.25
3533.01;2.25
3533.25;2.25
3533.49;2.25
3533.73;2.26
3533.97;2.26
3534.22;2.26
3534.46;2.26
3534.70;2.26
3534.94;2.26
3535.18;2.26
3535.42;2.26
3535.66;2.26
3535.90;2.26
3536.14;2.26
3536.38;2.26
3536.63;2.26
3536.87;2.26
3537.11;2.26
3537.35;2.26
3537.59;2.26
3537.83;2.26
3538.07;2.26
3538.31;2.26
3538.55;2.26
3538.80;2.26
3539.04;2.26
3539.28;2.26
3539.52;2.26
3539.76;2.27
3540.00;2.27
3540.24;2.27
3540.48;2.27
3540.72;2.27
3540.96;2.27
3541.21;2.27
3541.45;2.27
3541.69;2.27
3541.93;2.27
3542.17;2.27
3542.41;2.27
3542.65;2.27
3542.89;2.27
3543.13;2.27
3543.38;2.26
3543.62;2.26
3543.86;2.26
3544.10;2.26
3544.34;2.26
3544.58;2.27
3544.82;2.27
3545.06;2.27
3545.30;2.27
3545.54;2.27
3545.79;2.27
3546.03;2.27
3546.27;2.27
3546.51;2.27
3546.75;2.27
3546.99;2.27
3547.23;2.27
3547.47;2.27
3547.71;2.27
3547.96;2.27
3548.20;2.27
3548.44;2.27
3548.68;2.27
3548.92;2.27
3549.16;2.27
3549.40;2.27
3549.64;2.27
3549.88;2.27
3550.13;2.27
3550.37;2.27
3550.61;2.27
3550.85;2.27
3551.09;2.27
3551.33;2.27
3551.57;2.27
3551.81;2.27
3552.05;2.27
3552.29;2.27
3552.54;2.27
3552.78;2.27
3553.02;2.27
3553.26;2.27
3553.50;2.27
3553.74;2.27
3553.98;2.27
3554.22;2.27
3554.46;2.27
3554.71;2.27
3554.95;2.27
3555.19;2.27
3555.43;2.27
3555.67;2.27
3555.91;2.27
3556.15;2.27
3556.39;2.27
3556.63;2.27
3556.88;2.27
3557.12;2.27
3557.36;2.27
3557.60;2.27
3557.84;2.26
3558.08;2.26
3558.32;2.26
3558.56;2.26
3558.80;2.26
3559.04;2.26
3559.29;2.26
3559.53;2.26
3559.77;2.26
3560.01;2.26
3560.25;2.26
3560.49;2.26
3560.73;2.26
3560.97;2.26
3561.21;2.25
3561.46;2.25
3561.70;2.25
3561.94;2.25
3562.18;2.25
3562.42;2.25
3562.66;2.25
3562.90;2.25
3563.14;2.25
3563.38;2.25
3563.62;2.25
3563.87;2.24
3564.11;2.24
3564.35;2.24
3564.59;2.24
3564.83;2.24
3565.07;2.24
3565.31;2.24
3565.55;2.24
3565.79;2.24
3566.04;2.23
3566.28;2.23
3566.52;2.23
3566.76;2.23
3567.00;2.24
3567.24;2.24
3567.48;2.24
3567.72;2.24
3567.96;2.24
3568.20;2.24
3568.45;2.24
3568.69;2.24
3568.93;2.24
3569.17;2.24
3569.41;2.24
3569.65;2.24
3569.89;2.24
3570.13;2.23
3570.37;2.23
3570.62;2.23
3570.86;2.23
3571.10;2.23
3571.34;2.23
3571.58;2.23
3571.82;2.23
3572.06;2.23
3572.30;2.23
3572.54;2.23
3572.78;2.23
3573.03;2.23
3573.27;2.23
3573.51;2.23
3573.75;2.22
3573.99;2.22
3574.23;2.22
3574.47;2.22
3574.71;2.22
3574.95;2.22
3575.20;2.22
3575.44;2.22
3575.68;2.22
3575.92;2.22
3576.16;2.22
3576.40;2.22
3576.64;2.22
3576.88;2.22
3577.12;2.22
3577.37;2.22
3577.61;2.22
3577.85;2.22
3578.09;2.22
3578.33;2.21
3578.57;2.21
3578.81;2.21
3579.05;2.21
3579.29;2.21
3579.53;2.21
3579.78;2.21
3580.02;2.21
3580.26;2.21
3580.50;2.21
3580.74;2.21
3580.98;2.21
3581.22;2.20
3581.46;2.20
3581.70;2.20
3581.95;2.20
3582.19;2.20
3582.43;2.20
3582.67;2.20
3582.91;2.20
3583.15;2.20
3583.39;2.20
3583.63;2.19
3583.87;2.19
3584.12;2.19
3584.36;2.19
3584.60;2.19
3584.84;2.19
3585.08;2.19
3585.32;2.19
3585.56;2.18
3585.80;2.18
3586.04;2.18
3586.28;2.18
3586.53;2.18
3586.77;2.18
3587.01;2.18
3587.25;2.18
3587.49;2.18
3587.73;2.18
3587.97;2.18
3588.21;2.18
3588.45;2.18
3588.70;2.18
3588.94;2.18
3589.18;2.18
3589.42;2.18
3589.66;2.18
3589.90;2.18
3590.14;2.17
3590.38;2.17
3590.62;2.17
3590.86;2.17
3591.11;2.17
3591.35;2.17
3591.59;2.17
3591.83;2.17
3592.07;2.17
3592.31;2.17
3592.55;2.17
3592.79;2.16
3593.03;2.16
3593.28;2.16
3593.52;2.16
3593.76;2.16
3594.00;2.16
3594.24;2.16
3594.48;2.16
3594.72;2.16
3594.96;2.16
3595.20;2.16
3595.44;2.16
3595.69;2.16
3595.93;2.16
3596.17;2.16
3596.41;2.16
3596.65;2.16
3596.89;2.16
3597.13;2.15
3597.37;2.15
3597.61;2.15
3597.86;2.15
3598.10;2.15
3598.34;2.15
3598.58;2.15
3598.82;2.15
3599.06;2.15
3599.30;2.14
3599.54;2.14
3599.78;2.14
3600.03;2.14
3600.27;2.14
3600.51;2.14
3600.75;2.14
3600.99;2.14
3601.23;2.14
3601.47;2.14
3601.71;2.14
3601.95;2.14
3602.19;2.14
3602.44;2.14
3602.68;2.14
3602.92;2.14
3603.16;2.13
3603.40;2.13
3603.64;2.13
3603.88;2.13
3604.12;2.13
3604.36;2.13
3604.61;2.13
3604.85;2.13
3605.09;2.13
3605.33;2.13
3605.57;2.12
3605.81;2.12
3606.05;2.12
3606.29;2.12
3606.53;2.12
3606.77;2.12
3607.02;2.12
3607.26;2.12
3607.50;2.11
3607.74;2.11
3607.98;2.11
3608.22;2.11
3608.46;2.11
3608.70;2.11
3608.94;2.11
3609.19;2.11
3609.43;2.11
3609.67;2.11
3609.91;2.11
3610.15;2.11
3610.39;2.11
3610.63;2.11
3610.87;2.11
3611.11;2.11
3611.35;2.11
3611.60;2.11
3611.84;2.10
3612.08;2.10
3612.32;2.10
3612.56;2.10
3612.80;2.10
3613.04;2.10
3613.28;2.10
3613.52;2.10
3613.77;2.10
3614.01;2.10
3614.25;2.10
3614.49;2.10
3614.73;2.10
3614.97;2.10
3615.21;2.09
3615.45;2.09
3615.69;2.09
3615.94;2.09
3616.18;2.09
3616.42;2.09
3616.66;2.09
3616.90;2.09
3617.14;2.09
3617.38;2.09
3617.62;2.09
3617.86;2.09
3618.10;2.08
3618.35;2.08
3618.59;2.08
3618.83;2.08
3619.07;2.08
3619.31;2.08
3619.55;2.08
3619.79;2.08
3620.03;2.08
3620.27;2.08
3620.52;2.08
3620.76;2.08
3621.00;2.08
3621.24;2.08
3621.48;2.08
3621.72;2.08
3621.96;2.08
3622.20;2.08
3622.44;2.08
3622.68;2.08
3622.93;2.08
3623.17;2.07
3623.41;2.07
3623.65;2.07
3623.89;2.07
3624.13;2.07
3624.37;2.07
3624.61;2.07
3624.85;2.07
3625.10;2.07
3625.34;2.07
3625.58;2.06
3625.82;2.06
3626.06;2.06
3626.30;2.06
3626.54;2.06
3626.78;2.06
3627.02;2.06
3627.27;2.06
3627.51;2.06
3627.75;2.05
3627.99;2.05
3628.23;2.05
3628.47;2.05
3628.71;2.05
3628.95;2.06
3629.19;2.06
3629.43;2.06
3629.68;2.06
3629.92;2.06
3630.16;2.06
3630.40;2.06
3630.64;2.06
3630.88;2.06
3631.12;2.06
3631.36;2.05
3631.60;2.05
3631.85;2.05
3632.09;2.05
3632.33;2.05
3632.57;2.05
3632.81;2.05
3633.05;2.05
3633.29;2.05
3633.53;2.05
3633.77;2.05
3634.01;2.05
3634.26;2.05
3634.50;2.05
3634.74;2.05
3634.98;2.05
3635.22;2.05
3635.46;2.05
3635.70;2.05
3635.94;2.05
3636.18;2.04
3636.43;2.04
3636.67;2.04
3636.91;2.04
3637.15;2.04
3637.39;2.04
3637.63;2.04
3637.87;2.04
3638.11;2.04
3638.35;2.04
3638.59;2.04
3638.84;2.04
3639.08;2.04
3639.32;2.04
3639.56;2.04
3639.80;2.04
3640.04;2.04
3640.28;2.04
3640.52;2.04
3640.76;2.03
3641.01;2.03
3641.25;2.03
3641.49;2.03
3641.73;2.03
3641.97;2.03
3642.21;2.03
3642.45;2.03
3642.69;2.03
3642.93;2.03
3643.18;2.03
3643.42;2.03
3643.66;2.03
3643.90;2.03
3644.14;2.03
3644.38;2.03
3644.62;2.03
3644.86;2.02
3645.10;2.02
3645.34;2.02
3645.59;2.02
3645.83;2.02
3646.07;2.01
3646.31;2.01
3646.55;2.01
3646.79;2.01
3647.03;2.01
3647.27;2.01
3647.51;2.01
3647.76;2.01
3648.00;2.01
3648.24;2.01
3648.48;2.01
3648.72;2.01
3648.96;2.01
3649.20;2.01
3649.44;2.01
3649.68;2.01
3649.93;2.01
3650.17;2.01
3650.41;2.01
3650.65;2.01
3650.89;2.01
3651.13;2.02
3651.37;2.02
3651.61;2.02
3651.85;2.02
3652.09;2.02
3652.34;2.02
3652.58;2.02
3652.82;2.01
3653.06;2.01
3653.30;2.01
3653.54;2.01
3653.78;2.01
3654.02;2.01
3654.26;2.01
3654.51;2.01
3654.75;2.01
3654.99;2.01
3655.23;2.01
3655.47;2.01
3655.71;2.01
3655.95;2.01
3656.19;2.01
3656.43;2.01
3656.67;2.01
3656.92;2.01
3657.16;2.01
3657.40;2.01
3657.64;2.01
3657.88;2.01
3658.12;2.01
3658.36;2.01
3658.60;2.01
3658.84;2.00
3659.09;2.00
3659.33;2.00
3659.57;2.00
3659.81;2.00
3660.05;2.00
3660.29;2.00
3660.53;2.00
3660.77;2.00
3661.01;2.00
3661.25;2.00
3661.50;2.00
3661.74;2.00
3661.98;2.00
3662.22;2.00
3662.46;2.00
3662.70;2.00
3662.94;2.00
3663.18;2.00
3663.42;2.00
3663.67;2.00
3663.91;2.00
3664.15;2.00
3664.39;2.00
3664.63;2.00
3664.87;2.00
3665.11;2.00
3665.35;2.00
3665.59;2.00
3665.83;1.99
3666.08;1.99
3666.32;1.99
3666.56;1.99
3666.80;1.99
3667.04;1.99
3667.28;1.99
3667.52;1.99
3667.76;1.99
3668.00;1.99
3668.25;1.98
3668.49;1.98
3668.73;1.98
3668.97;1.98
3669.21;1.98
3669.45;1.98
3669.69;1.98
3669.93;1.98
3670.17;1.98
3670.42;1.98
3670.66;1.99
3670.90;1.99
3671.14;1.99
3671.38;1.99
3671.62;1.99
3671.86;1.99
3672.10;1.99
3672.34;1.98
3672.58;1.98
3672.83;1.98
3673.07;1.98
3673.31;1.98
3673.55;1.98
3673.79;1.98
3674.03;1.97
3674.27;1.97
3674.51;1.97
3674.75;1.97
3675.00;1.97
3675.24;1.97
3675.48;1.97
3675.72;1.97
3675.96;1.98
3676.20;1.98
3676.44;1.98
3676.68;1.98
3676.92;1.98
3677.17;1.98
3677.41;1.98
3677.65;1.98
3677.89;1.98
3678.13;1.98
3678.37;1.98
3678.61;1.98
3678.85;1.98
3679.09;1.98
3679.33;1.98
3679.58;1.98
3679.82;1.98
3680.06;1.98
3680.30;1.98
3680.54;1.98
3680.78;1.98
3681.02;1.98
3681.26;1.98
3681.50;1.98
3681.75;1.98
3681.99;1.98
3682.23;1.98
3682.47;1.98
3682.71;1.98
3682.95;1.98
3683.19;1.98
3683.43;1.98
3683.67;1.98
3683.91;1.98
3684.16;1.98
3684.40;1.98
3684.64;1.98
3684.88;1.98
3685.12;1.98
3685.36;1.98
3685.60;1.98
3685.84;1.98
3686.08;1.98
3686.33;1.97
3686.57;1.97
3686.81;1.97
3687.05;1.97
3687.29;1.97
3687.53;1.97
3687.77;1.97
3688.01;1.97
3688.25;1.97
3688.49;1.97
3688.74;1.97
3688.98;1.97
3689.22;1.97
3689.46;1.97
3689.70;1.97
3689.94;1.97
3690.18;1.97
3690.42;1.97
3690.66;1.97
3690.91;1.97
3691.15;1.97
3691.39;1.97
3691.63;1.97
3691.87;1.97
3692.11;1.97
3692.35;1.97
3692.59;1.97
3692.83;1.97
3693.08;1.97
3693.32;1.97
3693.56;1.97
3693.80;1.97
3694.04;1.97
3694.28;1.97
3694.52;1.97
3694.76;1.97
3695.00;1.97
3695.24;1.97
3695.49;1.97
3695.73;1.97
3695.97;1.97
3696.21;1.97
3696.45;1.97
3696.69;1.97
3696.93;1.97
3697.17;1.97
3697.41;1.97
3697.66;1.97
3697.90;1.97
3698.14;1.97
3698.38;1.97
3698.62;1.97
3698.86;1.97
3699.10;1.97
3699.34;1.97
3699.58;1.97
3699.82;1.97
3700.07;1.97
3700.31;1.97
3700.55;1.96
3700.79;1.96
3701.03;1.96
3701.27;1.97
3701.51;1.97
3701.75;1.97
3701.99;1.97
3702.24;1.97
3702.48;1.97
3702.72;1.97
3702.96;1.97
3703.20;1.97
3703.44;1.97
3703.68;1.97
3703.92;1.97
3704.16;1.97
3704.41;1.97
3704.65;1.97
3704.89;1.97
3705.13;1.97
3705.37;1.97
3705.61;1.97
3705.85;1.97
3706.09;1.97
3706.33;1.97
3706.57;1.97
3706.82;1.96
3707.06;1.96
3707.30;1.96
3707.54;1.96
3707.78;1.96
3708.02;1.96
3708.26;1.96
3708.50;1.96
3708.74;1.96
3708.99;1.96
3709.23;1.96
3709.47;1.96
3709.71;1.96
3709.95;1.96
3710.19;1.96
3710.43;1.96
3710.67;1.96
3710.91;1.96
3711.15;1.96
3711.40;1.96
3711.64;1.96
3711.88;1.96
3712.12;1.96
3712.36;1.97
3712.60;1.97
3712.84;1.97
3713.08;1.97
3713.32;1.97
3713.57;1.97
3713.81;1.97
3714.05;1.97
3714.29;1.97
3714.53;1.97
3714.77;1.97
3715.01;1.97
3715.25;1.97
3715.49;1.97
3715.73;1.97
3715.98;1.97
3716.22;1.97
3716.46;1.97
3716.70;1.97
3716.94;1.96
3717.18;1.96
3717.42;1.96
3717.66;1.96
3717.90;1.96
3718.15;1.96
3718.39;1.96
3718.63;1.96
3718.87;1.96
3719.11;1.96
3719.35;1.96
3719.59;1.96
3719.83;1.96
3720.07;1.96
3720.32;1.96
3720.56;1.96
3720.80;1.96
3721.04;1.96
3721.28;1.96
3721.52;1.96
3721.76;1.96
3722.00;1.96
3722.24;1.96
3722.48;1.96
3722.73;1.96
3722.97;1.96
3723.21;1.96
3723.45;1.96
3723.69;1.96
3723.93;1.96
3724.17;1.96
3724.41;1.96
3724.65;1.96
3724.90;1.96
3725.14;1.96
3725.38;1.96
3725.62;1.96
3725.86;1.96
3726.10;1.96
3726.34;1.96
3726.58;1.96
3726.82;1.96
3727.06;1.96
3727.31;1.96
3727.55;1.96
3727.79;1.96
3728.03;1.96
3728.27;1.96
3728.51;1.96
3728.75;1.96
3728.99;1.96
3729.23;1.96
3729.48;1.96
3729.72;1.96
3729.96;1.96
3730.20;1.96
3730.44;1.95
3730.68;1.95
3730.92;1.95
3731.16;1.95
3731.40;1.95
3731.65;1.95
3731.89;1.95
3732.13;1.95
3732.37;1.95
3732.61;1.95
3732.85;1.95
3733.09;1.95
3733.33;1.95
3733.57;1.95
3733.81;1.94
3734.06;1.94
3734.30;1.94
3734.54;1.94
3734.78;1.94
3735.02;1.94
3735.26;1.94
3735.50;1.94
3735.74;1.95
3735.98;1.95
3736.23;1.95
3736.47;1.95
3736.71;1.95
3736.95;1.95
3737.19;1.96
3737.43;1.96
3737.67;1.96
3737.91;1.96
3738.15;1.96
3738.39;1.96
3738.64;1.96
3738.88;1.96
3739.12;1.96
3739.36;1.96
3739.60;1.96
3739.84;1.96
3740.08;1.95
3740.32;1.95
3740.56;1.95
3740.81;1.95
3741.05;1.95
3741.29;1.95
3741.53;1.95
3741.77;1.95
3742.01;1.95
3742.25;1.95
3742.49;1.95
3742.73;1.95
3742.98;1.95
3743.22;1.95
3743.46;1.95
3743.70;1.94
3743.94;1.94
3744.18;1.95
3744.42;1.95
3744.66;1.96
3744.90;1.96
3745.14;1.96
3745.39;1.96
3745.63;1.96
3745.87;1.95
3746.11;1.95
3746.35;1.95
3746.59;1.95
3746.83;1.95
3747.07;1.95
3747.31;1.95
3747.56;1.95
3747.80;1.95
3748.04;1.95
3748.28;1.95
3748.52;1.95
3748.76;1.95
3749.00;1.95
3749.24;1.95
3749.48;1.95
3749.72;1.95
3749.97;1.95
3750.21;1.95
3750.45;1.95
3750.69;1.95
3750.93;1.94
3751.17;1.94
3751.41;1.94
3751.65;1.94
3751.89;1.95
3752.14;1.95
3752.38;1.96
3752.62;1.96
3752.86;1.96
3753.10;1.96
3753.34;1.96
3753.58;1.96
3753.82;1.96
3754.06;1.96
3754.30;1.96
3754.55;1.96
3754.79;1.96
3755.03;1.96
3755.27;1.96
3755.51;1.96
3755.75;1.96
3755.99;1.96
3756.23;1.96
3756.47;1.96
3756.72;1.96
3756.96;1.96
3757.20;1.96
3757.44;1.96
3757.68;1.96
3757.92;1.95
3758.16;1.95
3758.40;1.95
3758.64;1.95
3758.89;1.95
3759.13;1.95
3759.37;1.95
3759.61;1.96
3759.85;1.96
3760.09;1.96
3760.33;1.96
3760.57;1.96
3760.81;1.96
3761.05;1.96
3761.30;1.96
3761.54;1.96
3761.78;1.96
3762.02;1.96
3762.26;1.96
3762.50;1.96
3762.74;1.96
3762.98;1.96
3763.22;1.96
3763.47;1.96
3763.71;1.96
3763.95;1.96
3764.19;1.96
3764.43;1.96
3764.67;1.96
3764.91;1.96
3765.15;1.96
3765.39;1.96
3765.63;1.96
3765.88;1.96
3766.12;1.96
3766.36;1.96
3766.60;1.96
3766.84;1.96
3767.08;1.96
3767.32;1.96
3767.56;1.96
3767.80;1.96
3768.05;1.95
3768.29;1.95
3768.53;1.95
3768.77;1.95
3769.01;1.95
3769.25;1.95
3769.49;1.95
3769.73;1.95
3769.97;1.96
3770.22;1.96
3770.46;1.96
3770.70;1.96
3770.94;1.96
3771.18;1.96
3771.42;1.96
3771.66;1.96
3771.90;1.96
3772.14;1.96
3772.38;1.96
3772.63;1.96
3772.87;1.96
3773.11;1.96
3773.35;1.96
3773.59;1.96
3773.83;1.96
3774.07;1.96
3774.31;1.96
3774.55;1.96
3774.80;1.96
3775.04;1.96
3775.28;1.96
3775.52;1.96
3775.76;1.96
3776.00;1.96
3776.24;1.96
3776.48;1.96
3776.72;1.96
3776.96;1.96
3777.21;1.96
3777.45;1.95
3777.69;1.95
3777.93;1.95
3778.17;1.95
3778.41;1.95
3778.65;1.95
3778.89;1.95
3779.13;1.95
3779.38;1.96
3779.62;1.96
3779.86;1.96
3780.10;1.96
3780.34;1.96
3780.58;1.96
3780.82;1.96
3781.06;1.96
3781.30;1.96
3781.54;1.96
3781.79;1.96
3782.03;1.96
3782.27;1.95
3782.51;1.95
3782.75;1.95
3782.99;1.95
3783.23;1.95
3783.47;1.95
3783.71;1.95
3783.96;1.95
3784.20;1.95
3784.44;1.95
3784.68;1.95
3784.92;1.95
3785.16;1.96
3785.40;1.96
3785.64;1.96
3785.88;1.96
3786.13;1.96
3786.37;1.96
3786.61;1.96
3786.85;1.96
3787.09;1.96
3787.33;1.96
3787.57;1.96
3787.81;1.96
3788.05;1.96
3788.29;1.96
3788.54;1.96
3788.78;1.96
3789.02;1.96
3789.26;1.96
3789.50;1.96
3789.74;1.96
3789.98;1.96
3790.22;1.96
3790.46;1.96
3790.71;1.96
3790.95;1.96
3791.19;1.96
3791.43;1.96
3791.67;1.96
3791.91;1.96
3792.15;1.96
3792.39;1.96
3792.63;1.96
3792.88;1.96
3793.12;1.96
3793.36;1.96
3793.60;1.96
3793.84;1.96
3794.08;1.96
3794.32;1.95
3794.56;1.95
3794.80;1.95
3795.04;1.95
3795.29;1.95
3795.53;1.95
3795.77;1.95
3796.01;1.95
3796.25;1.95
3796.49;1.95
3796.73;1.96
3796.97;1.96
3797.21;1.96
3797.46;1.96
3797.70;1.96
3797.94;1.96
3798.18;1.96
3798.42;1.96
3798.66;1.95
3798.90;1.95
3799.14;1.95
3799.38;1.95
3799.62;1.95
3799.87;1.95
3800.11;1.95
3800.35;1.95
3800.59;1.94
3800.83;1.94
3801.07;1.94
3801.31;1.95
3801.55;1.95
3801.79;1.95
3802.04;1.95
3802.28;1.95
3802.52;1.95
3802.76;1.96
3803.00;1.96
3803.24;1.96
3803.48;1.96
3803.72;1.96
3803.96;1.96
3804.20;1.96
3804.45;1.95
3804.69;1.95
3804.93;1.95
3805.17;1.95
3805.41;1.95
3805.65;1.95
3805.89;1.95
3806.13;1.95
3806.37;1.95
3806.62;1.95
3806.86;1.96
3807.10;1.96
3807.34;1.96
3807.58;1.96
3807.82;1.96
3808.06;1.96
3808.30;1.96
3808.54;1.96
3808.78;1.96
3809.03;1.96
3809.27;1.96
3809.51;1.96
3809.75;1.96
3809.99;1.96
3810.23;1.96
3810.47;1.96
3810.71;1.96
3810.95;1.96
3811.20;1.96
3811.44;1.96
3811.68;1.96
3811.92;1.96
3812.16;1.96
3812.40;1.96
3812.64;1.96
3812.88;1.96
3813.12;1.96
3813.37;1.96
3813.61;1.96
3813.85;1.96
3814.09;1.96
3814.33;1.95
3814.57;1.95
3814.81;1.95
3815.05;1.95
3815.29;1.95
3815.53;1.95
3815.78;1.95
3816.02;1.95
3816.26;1.96
3816.50;1.96
3816.74;1.96
3816.98;1.96
3817.22;1.96
3817.46;1.96
3817.70;1.96
3817.95;1.96
3818.19;1.95
3818.43;1.95
3818.67;1.95
3818.91;1.95
3819.15;1.95
3819.39;1.95
3819.63;1.95
3819.87;1.94
3820.12;1.94
3820.36;1.94
3820.60;1.94
3820.84;1.94
3821.08;1.95
3821.32;1.95
3821.56;1.96
3821.80;1.96
3822.04;1.96
3822.28;1.96
3822.53;1.96
3822.77;1.96
3823.01;1.96
3823.25;1.96
3823.49;1.96
3823.73;1.96
3823.97;1.96
3824.21;1.96
3824.45;1.96
3824.70;1.96
3824.94;1.96
3825.18;1.96
3825.42;1.96
3825.66;1.96
3825.90;1.96
3826.14;1.96
3826.38;1.96
3826.62;1.96
3826.86;1.96
3827.11;1.96
3827.35;1.96
3827.59;1.96
3827.83;1.96
3828.07;1.96
3828.31;1.96
3828.55;1.96
3828.79;1.96
3829.03;1.96
3829.28;1.96
3829.52;1.96
3829.76;1.96
3830.00;1.96
3830.24;1.96
3830.48;1.96
3830.72;1.96
3830.96;1.96
3831.20;1.96
3831.44;1.96
3831.69;1.96
3831.93;1.96
3832.17;1.96
3832.41;1.96
3832.65;1.96
3832.89;1.96
3833.13;1.96
3833.37;1.96
3833.61;1.96
3833.86;1.96
3834.10;1.96
3834.34;1.96
3834.58;1.96
3834.82;1.96
3835.06;1.96
3835.30;1.96
3835.54;1.96
3835.78;1.96
3836.03;1.95
3836.27;1.95
3836.51;1.95
3836.75;1.95
3836.99;1.95
3837.23;1.95
3837.47;1.95
3837.71;1.96
3837.95;1.96
3838.19;1.96
3838.44;1.96
3838.68;1.96
3838.92;1.96
3839.16;1.96
3839.40;1.96
3839.64;1.96
3839.88;1.96
3840.12;1.96
3840.36;1.96
3840.61;1.96
3840.85;1.96
3841.09;1.96
3841.33;1.96
3841.57;1.96
3841.81;1.96
3842.05;1.96
3842.29;1.96
3842.53;1.96
3842.77;1.96
3843.02;1.96
3843.26;1.96
3843.50;1.96
3843.74;1.96
3843.98;1.96
3844.22;1.96
3844.46;1.96
3844.70;1.96
3844.94;1.96
3845.19;1.96
3845.43;1.96
3845.67;1.96
3845.91;1.96
3846.15;1.96
3846.39;1.96
3846.63;1.96
3846.87;1.96
3847.11;1.96
3847.35;1.96
3847.60;1.96
3847.84;1.96
3848.08;1.96
3848.32;1.96
3848.56;1.96
3848.80;1.96
3849.04;1.96
3849.28;1.96
3849.52;1.96
3849.77;1.96
3850.01;1.96
3850.25;1.96
3850.49;1.96
3850.73;1.95
3850.97;1.95
3851.21;1.95
3851.45;1.95
3851.69;1.95
3851.94;1.95
3852.18;1.94
3852.42;1.94
3852.66;1.94
3852.90;1.94
3853.14;1.94
3853.38;1.94
3853.62;1.94
3853.86;1.95
3854.10;1.96
3854.35;1.96
3854.59;1.96
3854.83;1.96
3855.07;1.96
3855.31;1.96
3855.55;1.96
3855.79;1.96
3856.03;1.96
3856.27;1.96
3856.52;1.96
3856.76;1.96
3857.00;1.96
3857.24;1.96
3857.48;1.97
3857.72;1.97
3857.96;1.97
3858.20;1.97
3858.44;1.97
3858.68;1.97
3858.93;1.97
3859.17;1.97
3859.41;1.96
3859.65;1.96
3859.89;1.96
3860.13;1.96
3860.37;1.96
3860.61;1.96
3860.85;1.96
3861.10;1.96
3861.34;1.96
3861.58;1.96
3861.82;1.96
3862.06;1.96
3862.30;1.96
3862.54;1.96
3862.78;1.96
3863.02;1.96
3863.27;1.96
3863.51;1.96
3863.75;1.96
3863.99;1.96
3864.23;1.96
3864.47;1.96
3864.71;1.96
3864.95;1.96
3865.19;1.97
3865.43;1.97
3865.68;1.97
3865.92;1.97
3866.16;1.97
3866.40;1.97
3866.64;1.97
3866.88;1.96
3867.12;1.96
3867.36;1.96
3867.60;1.96
3867.85;1.96
3868.09;1.96
3868.33;1.96
3868.57;1.96
3868.81;1.96
3869.05;1.96
3869.29;1.96
3869.53;1.96
3869.77;1.96
3870.01;1.96
3870.26;1.96
3870.50;1.96
3870.74;1.97
3870.98;1.97
3871.22;1.97
3871.46;1.97
3871.70;1.97
3871.94;1.97
3872.18;1.97
3872.43;1.96
3872.67;1.96
3872.91;1.96
3873.15;1.96
3873.39;1.96
3873.63;1.96
3873.87;1.97
3874.11;1.97
3874.35;1.97
3874.59;1.97
3874.84;1.97
3875.08;1.97
3875.32;1.97
3875.56;1.97
3875.80;1.97
3876.04;1.97
3876.28;1.97
3876.52;1.97
3876.76;1.97
3877.01;1.97
3877.25;1.97
3877.49;1.97
3877.73;1.97
3877.97;1.97
3878.21;1.97
3878.45;1.97
3878.69;1.96
3878.93;1.96
3879.18;1.96
3879.42;1.96
3879.66;1.96
3879.90;1.96
3880.14;1.96
3880.38;1.97
3880.62;1.97
3880.86;1.97
3881.10;1.97
3881.34;1.97
3881.59;1.97
3881.83;1.97
3882.07;1.97
3882.31;1.97
3882.55;1.97
3882.79;1.97
3883.03;1.97
3883.27;1.97
3883.51;1.97
3883.76;1.97
3884.00;1.97
3884.24;1.97
3884.48;1.97
3884.72;1.97
3884.96;1.97
3885.20;1.97
3885.44;1.97
3885.68;1.97
3885.93;1.97
3886.17;1.97
3886.41;1.97
3886.65;1.97
3886.89;1.97
3887.13;1.97
3887.37;1.97
3887.61;1.97
3887.85;1.97
3888.09;1.97
3888.34;1.97
3888.58;1.97
3888.82;1.97
3889.06;1.97
3889.30;1.97
3889.54;1.97
3889.78;1.97
3890.02;1.97
3890.26;1.97
3890.51;1.97
3890.75;1.97
3890.99;1.97
3891.23;1.97
3891.47;1.97
3891.71;1.97
3891.95;1.97
3892.19;1.97
3892.43;1.97
3892.67;1.97
3892.92;1.97
3893.16;1.97
3893.40;1.97
3893.64;1.97
3893.88;1.97
3894.12;1.97
3894.36;1.97
3894.60;1.97
3894.84;1.97
3895.09;1.98
3895.33;1.98
3895.57;1.98
3895.81;1.98
3896.05;1.98
3896.29;1.98
3896.53;1.98
3896.77;1.97
3897.01;1.97
3897.25;1.97
3897.50;1.97
3897.74;1.97
3897.98;1.97
3898.22;1.97
3898.46;1.97
3898.70;1.97
3898.94;1.97
3899.18;1.97
3899.42;1.97
3899.67;1.97
3899.91;1.97
3900.15;1.97
3900.39;1.97
3900.63;1.97
3900.87;1.97
3901.11;1.97
3901.35;1.97
3901.59;1.97
3901.83;1.98
3902.08;1.98
3902.32;1.98
3902.56;1.98
3902.80;1.98
3903.04;1.98
3903.28;1.98
3903.52;1.98
3903.76;1.98
3904.00;1.98
3904.25;1.98
3904.49;1.98
3904.73;1.98
3904.97;1.98
3905.21;1.98
3905.45;1.98
3905.69;1.98
3905.93;1.99
3906.17;1.99
3906.42;1.99
3906.66;1.99
3906.90;1.99
3907.14;1.99
3907.38;1.99
3907.62;1.99
3907.86;1.99
3908.10;1.99
3908.34;1.99
3908.58;1.99
3908.83;1.99
3909.07;1.99
3909.31;1.99
3909.55;1.99
3909.79;1.99
3910.03;1.99
3910.27;1.99
3910.51;1.99
3910.75;1.99
3911.00;1.99
3911.24;1.99
3911.48;1.99
3911.72;1.99
3911.96;1.99
3912.20;1.99
3912.44;1.99
3912.68;1.99
3912.92;1.99
3913.17;1.99
3913.41;1.99
3913.65;1.99
3913.89;1.99
3914.13;1.99
3914.37;1.99
3914.61;1.99
3914.85;1.99
3915.09;1.99
3915.33;1.99
3915.58;1.99
3915.82;1.99
3916.06;1.99
3916.30;1.99
3916.54;1.99
3916.78;1.99
3917.02;1.99
3917.26;1.99
3917.50;1.99
3917.75;1.99
3917.99;1.99
3918.23;1.99
3918.47;1.99
3918.71;1.99
3918.95;1.99
3919.19;1.99
3919.43;1.99
3919.67;1.99
3919.91;2.00
3920.16;2.00
3920.40;2.00
3920.64;2.00
3920.88;2.00
3921.12;2.00
3921.36;2.00
3921.60;2.00
3921.84;2.00
3922.08;2.00
3922.33;2.00
3922.57;2.00
3922.81;2.00
3923.05;2.00
3923.29;2.00
3923.53;1.99
3923.77;2.00
3924.01;2.00
3924.25;2.00
3924.49;2.00
3924.74;2.00
3924.98;2.00
3925.22;2.00
3925.46;2.00
3925.70;2.00
3925.94;2.00
3926.18;2.00
3926.42;2.00
3926.66;2.00
3926.91;2.00
3927.15;2.00
3927.39;2.00
3927.63;2.00
3927.87;2.00
3928.11;2.00
3928.35;2.00
3928.59;2.00
3928.83;2.00
3929.08;2.00
3929.32;2.00
3929.56;2.00
3929.80;2.00
3930.04;2.00
3930.28;2.00
3930.52;2.00
3930.76;2.00
3931.00;2.00
3931.24;2.00
3931.49;2.00
3931.73;2.00
3931.97;2.00
3932.21;2.00
3932.45;2.00
3932.69;2.00
3932.93;2.00
3933.17;2.00
3933.41;2.00
3933.66;2.00
3933.90;2.00
3934.14;2.00
3934.38;2.00
3934.62;2.00
3934.86;2.00
3935.10;2.00
3935.34;2.00
3935.58;2.00
3935.82;2.00
3936.07;2.00
3936.31;2.00
3936.55;2.00
3936.79;2.00
3937.03;2.00
3937.27;2.00
3937.51;2.00
3937.75;2.00
3937.99;2.00
3938.24;2.00
3938.48;2.00
3938.72;2.00
3938.96;2.00
3939.20;2.00
3939.44;2.00
3939.68;2.00
3939.92;2.00
3940.16;2.00
3940.41;2.00
3940.65;2.00
3940.89;2.00
3941.13;2.00
3941.37;2.00
3941.61;2.00
3941.85;2.00
3942.09;2.00
3942.33;2.00
3942.57;2.00
3942.82;2.00
3943.06;2.00
3943.30;2.00
3943.54;2.00
3943.78;2.00
3944.02;2.00
3944.26;2.00
3944.50;2.00
3944.74;2.00
3944.99;2.00
3945.23;2.00
3945.47;2.00
3945.71;2.00
3945.95;2.00
3946.19;2.00
3946.43;2.00
3946.67;2.00
3946.91;2.00
3947.15;2.00
3947.40;2.00
3947.64;2.00
3947.88;2.00
3948.12;2.00
3948.36;2.00
3948.60;2.00
3948.84;2.00
3949.08;2.00
3949.32;2.00
3949.57;2.00
3949.81;2.00
3950.05;2.00
3950.29;2.01
3950.53;2.01
3950.77;2.01
3951.01;2.01
3951.25;2.01
3951.49;2.01
3951.73;2.00
3951.98;2.00
3952.22;2.00
3952.46;2.00
3952.70;2.00
3952.94;2.00
3953.18;2.00
3953.42;2.00
3953.66;2.00
3953.90;2.00
3954.15;2.00
3954.39;2.00
3954.63;2.00
3954.87;2.00
3955.11;2.00
3955.35;2.00
3955.59;2.00
3955.83;2.00
3956.07;2.00
3956.32;2.00
3956.56;2.00
3956.80;2.00
3957.04;2.00
3957.28;2.00
3957.52;2.00
3957.76;2.00
3958.00;2.00
3958.24;2.00
3958.48;2.00
3958.73;2.00
3958.97;2.00
3959.21;2.00
3959.45;2.00
3959.69;2.00
3959.93;1.99
3960.17;1.99
3960.41;1.99
3960.65;1.99
3960.90;1.99
3961.14;1.99
3961.38;1.99
3961.62;2.00
3961.86;2.00
3962.10;2.00
3962.34;2.00
3962.58;2.00
3962.82;2.00
3963.06;2.00
3963.31;2.00
3963.55;1.99
3963.79;1.99
3964.03;1.99
3964.27;1.99
3964.51;1.99
3964.75;1.99
3964.99;1.99
3965.23;1.99
3965.48;1.99
3965.72;1.99
3965.96;1.99
3966.20;1.99
3966.44;1.99
3966.68;1.99
3966.92;1.99
3967.16;1.99
3967.40;1.99
3967.65;1.99
3967.89;1.99
3968.13;1.99
3968.37;1.99
3968.61;1.99
3968.85;1.99
3969.09;1.99
3969.33;1.99
3969.57;1.99
3969.81;1.99
3970.06;1.99
3970.30;1.99
3970.54;1.99
3970.78;1.99
3971.02;1.99
3971.26;1.99
3971.50;1.99
3971.74;1.99
3971.98;1.99
3972.23;1.99
3972.47;1.99
3972.71;1.99
3972.95;1.99
3973.19;1.99
3973.43;1.99
3973.67;1.99
3973.91;1.99
3974.15;1.99
3974.39;1.99
3974.64;1.99
3974.88;1.99
3975.12;1.99
3975.36;1.99
3975.60;1.99
3975.84;1.99
3976.08;1.99
3976.32;1.99
3976.56;1.99
3976.81;1.99
3977.05;1.99
3977.29;1.99
3977.53;1.99
3977.77;1.99
3978.01;1.99
3978.25;1.99
3978.49;1.99
3978.73;1.99
3978.98;1.99
3979.22;1.99
3979.46;1.99
3979.70;1.99
3979.94;1.99
3980.18;1.99
3980.42;1.99
3980.66;1.99
3980.90;1.99
3981.14;1.99
3981.39;1.99
3981.63;1.99
3981.87;1.99
3982.11;1.99
3982.35;1.99
3982.59;1.99
3982.83;1.99
3983.07;1.99
3983.31;1.99
3983.56;1.99
3983.80;1.98
3984.04;1.98
3984.28;1.98
3984.52;1.98
3984.76;1.98
3985.00;1.98
3985.24;1.98
3985.48;1.98
3985.72;1.98
3985.97;1.98
3986.21;1.98
3986.45;1.98
3986.69;1.98
3986.93;1.98
3987.17;1.98
3987.41;1.98
3987.65;1.98
3987.89;1.98
3988.14;1.98
3988.38;1.98
3988.62;1.98
3988.86;1.98
3989.10;1.98
3989.34;1.98
3989.58;1.98
3989.82;1.98
3990.06;1.98
3990.30;1.98
3990.55;1.98
3990.79;1.98
3991.03;1.98
3991.27;1.98
3991.51;1.98
3991.75;1.98
3991.99;1.98
3992.23;1.98
3992.47;1.98
3992.72;1.98
3992.96;1.98
3993.20;1.98
3993.44;1.98
3993.68;1.98
3993.92;1.98
3994.16;1.98
3994.40;1.98
3994.64;1.98
3994.89;1.98
3995.13;1.98
3995.37;1.98
3995.61;1.98
3995.85;1.98
3996.09;1.98
3996.33;1.98
3996.57;1.98
3996.81;1.98
3997.05;1.98
3997.30;1.98
3997.54;1.98
3997.78;1.98
3998.02;1.98
3998.26;1.98
3998.50;1.98
3998.74;1.98
3998.98;1.98
3999.22;1.98
3999.47;1.98
3999.71;1.98
3999.95;1.98
4000.19;1.98
4000.43;1.98
4000.67;1.98
4000.91;1.98
4001.15;1.98
4001.39;1.98
4001.63;1.98
4001.88;1.98
4002.12;1.98
4002.36;1.98
4002.60;1.98
4002.84;1.98
4003.08;1.98
4003.32;1.98
4003.56;1.98
4003.80;1.98
4004.05;1.98
4004.29;1.98
4004.53;1.98
4004.77;1.98
4005.01;1.98
4005.25;1.98
4005.49;1.98
4005.73;1.98
4005.97;1.98
4006.22;1.98
4006.46;1.98
4006.70;1.98
4006.94;1.98
4007.18;1.98
4007.42;1.98
4007.66;1.98
4007.90;1.98
4008.14;1.98
4008.38;1.98
4008.63;1.98
4008.87;1.98
4009.11;1.98
4009.35;1.98
4009.59;1.98
4009.83;1.98
4010.07;1.98
4010.31;1.98
4010.55;1.98
4010.80;1.98
4011.04;1.98
4011.28;1.98
4011.52;1.98
4011.76;1.98
4012.00;1.98
4012.24;1.98
